acc_x,acc_y,acc_z,gyro_x,gyro_y,gyro_z,total_acc,total_gyro,roll_avg_acc_X,roll_avg_acc_Y,roll_avg_acc_Z,roll_avg_gyro_X,roll_avg_gyro_Y,roll_avg_gyro_Z,tlt_X,tlt_Y,Still_Time,fall
-0.79,4.18,8.86,-0.3,0.06,0.18,9.82,0.36,-1.39,4.69,8.35,-0.14,0.05,0.08,25.24,-5.1,55254.0,0.0
-1.96,5.28,8.23,-0.34,-0.17,-0.02,9.97,0.39,-1.27,4.58,8.45,-0.17,0.05,0.1,32.69,-13.37,55458.0,0.0
-1.44,-0.85,6.59,-0.92,1.6,0.33,6.8,1.88,-1.41,4.72,8.4,-0.21,0.0,0.07,-7.33,-12.36,55662.0,0.0
-8.99,0.57,1.58,-0.32,4.3,-1.66,9.14,4.62,-1.41,3.61,8.04,-0.35,0.32,0.13,19.7,-80.04,55866.0,0.0
-13.12,-2.03,0.75,-1.28,0.23,-2.11,13.3,2.48,-2.93,3.0,6.75,-0.34,1.12,-0.23,-69.66,-86.72,56070.0,0.0
-9.58,-2.21,-1.45,-1.34,-0.58,-0.47,9.94,1.53,-4.97,2.0,5.55,-0.53,0.94,-0.61,-123.24,-98.6,56274.0,0.0
-8.71,-3.27,-3.39,0.7,0.52,0.4,9.9,0.96,-5.89,1.15,4.15,-0.69,0.64,-0.58,-136.09,-111.3,56478.0,0.0
-7.94,-3.67,-3.7,0.6,0.75,0.25,9.5,0.99,-6.45,0.27,2.64,-0.41,0.61,-0.38,-135.26,-115.0,56682.0,0.0
-7.93,-4.09,-3.84,0.18,0.37,0.02,9.71,0.41,-6.75,-0.52,1.37,-0.21,0.64,-0.26,-133.2,-115.86,56886.0,0.0
-6.76,-5.79,-4.3,0.08,-0.34,-0.76,9.89,0.83,-6.99,-1.23,0.33,-0.13,0.59,-0.2,-126.6,-122.48,57090.0,0.0
-8.14,-3.95,-4.37,-0.01,0.33,-0.7,10.05,0.77,-6.94,-2.15,-0.6,-0.09,0.4,-0.31,-137.88,-118.21,57294.0,0.0
-8.43,-2.87,-2.59,0.43,0.77,0.35,9.28,0.94,-7.18,-2.51,-1.35,-0.07,0.39,-0.39,-132.14,-107.09,57498.0,0.0
-10.3,-3.2,-3.65,0.71,0.51,1.41,11.39,1.65,-7.43,-2.58,-1.6,0.03,0.46,-0.24,-138.76,-109.51,57702.0,0.0
-12.49,-4.98,-4.2,-1.15,-0.96,1.89,14.09,2.42,-8.01,-2.7,-2.01,0.16,0.47,0.09,-130.18,-108.59,57906.0,0.0
-5.48,-4.41,-2.09,-0.54,-0.27,1.4,7.34,1.52,-8.9,-3.16,-2.45,-0.1,0.19,0.45,-115.31,-110.85,58110.0,0.0
-7.96,-5.48,-4.63,1.54,1.85,-1.63,10.72,2.91,-8.22,-3.41,-2.38,-0.19,0.1,0.64,-130.18,-120.18,58314.0,0.0
-12.12,-0.63,-6.79,0.47,0.26,-2.16,13.91,2.23,-8.17,-3.82,-2.83,0.16,0.45,0.18,-174.69,-119.27,58518.0,0.0
-7.69,-1.07,-4.67,-0.01,0.23,0.52,9.06,0.57,-8.96,-3.19,-3.62,0.22,0.41,-0.29,-167.05,-121.23,214.0,0.0
-8.67,-3.21,-3.98,-0.65,-0.69,0.95,10.06,1.34,-8.71,-2.76,-3.83,0.18,0.37,-0.12,-141.16,-114.67,418.0,0.0
-10.86,-4.07,-4.68,-0.82,-1.65,1.67,12.51,2.49,-8.7,-2.85,-3.86,0.01,0.16,0.09,-139.04,-113.32,622.0,0.0
-10.96,-2.02,-3.46,-1.42,-2.84,1.37,11.67,3.45,-9.13,-3.09,-4.02,-0.15,-0.2,0.41,-149.69,-107.51,826.0,0.0
-4.13,1.76,1.65,0.76,-2.26,1.76,4.79,2.96,-9.5,-2.88,-3.91,-0.41,-0.73,0.6,46.73,-68.18,1030.0,0.0
-0.16,0.7,1.2,-0.67,1.1,0.22,1.4,1.31,-8.42,-1.95,-2.8,-0.17,-1.04,0.83,30.32,-7.73,1234.0,0.0
-10.92,-3.01,2.26,-1.01,2.72,-3.84,11.55,4.81,-6.77,-1.42,-2.0,-0.27,-0.61,0.71,-53.09,-78.3,1438.0,0.0
-15.36,-1.99,-0.06,1.05,2.21,-2.05,15.48,3.19,-7.6,-1.74,-1.15,-0.42,0.06,-0.2,-91.65,-90.21,1642.0,0.0
-10.12,-2.64,-3.47,1.36,1.39,1.21,11.02,2.29,-9.15,-1.79,-0.93,-0.13,0.49,-0.57,-142.81,-108.94,1846.0,0.0
-11.4,-7.17,-3.73,-1.98,-0.15,3.32,13.97,3.87,-9.35,-1.96,-1.44,0.17,0.67,-0.21,-117.48,-108.11,2050.0,0.0
-4.4,-7.1,-3.02,-1.37,-0.71,0.94,8.88,1.81,-9.76,-3.0,-1.9,-0.26,0.51,0.49,-113.04,-124.49,2254.0,0.0
-8.76,-5.24,-4.19,-0.06,1.13,-2.78,11.03,3.0,-8.68,-3.82,-2.12,-0.48,0.26,0.58,-128.62,-115.53,2458.0,0.0
-13.42,-0.85,-4.85,1.11,0.66,-1.94,14.29,2.33,-8.7,-4.1,-2.53,-0.4,0.43,-0.09,-170.08,-109.87,2662.0,0.0
-14.2,-1.37,-4.21,0.71,1.06,0.23,14.88,1.29,-9.64,-3.45,-3.0,-0.09,0.48,-0.46,-162.02,-106.52,2866.0,0.0
-12.46,-5.65,-5.38,-0.3,1.29,2.64,14.7,2.95,-10.56,-3.04,-3.24,0.07,0.6,-0.32,-133.58,-113.35,3070.0,0.0
-6.35,-5.32,-3.37,-1.14,-0.76,2.82,8.95,3.13,-10.94,-3.56,-3.67,-0.01,0.73,0.27,-122.36,-117.96,3274.0,0.0
-5.07,-3.63,-4.16,0.2,1.0,-3.88,7.5,4.01,-10.02,-3.91,-3.61,-0.24,0.44,0.78,-138.94,-129.37,3478.0,0.0
-12.38,-3.61,-4.8,0.41,0.08,-2.64,13.76,2.67,-9.03,-3.86,-3.72,-0.15,0.55,-0.15,-143.05,-111.19,3682.0,0.0
-10.51,-0.36,-4.88,0.88,0.22,-1.51,11.59,1.76,-9.7,-3.81,-3.94,-0.04,0.45,-0.65,-175.79,-114.92,3886.0,0.0
-11.93,-3.62,-4.43,-0.79,-0.46,2.78,13.23,2.92,-9.86,-3.12,-4.12,0.15,0.41,-0.82,-140.71,-110.35,4090.0,0.0
-9.69,-6.63,-4.68,-1.32,-0.37,2.99,12.64,3.29,-10.28,-3.22,-4.19,-0.04,0.23,-0.1,-125.22,-115.78,4294.0,0.0
-3.54,-4.23,-2.5,-0.65,-0.4,1.04,6.05,1.29,-10.16,-3.9,-4.28,-0.3,0.11,0.52,-120.55,-125.21,4498.0,0.0
-10.08,-3.45,-4.45,-0.16,0.69,-3.66,11.54,3.73,-8.83,-3.97,-3.93,-0.37,0.01,0.62,-142.24,-113.82,4702.0,0.0
-9.86,-2.35,-4.84,1.0,0.58,-1.35,11.23,1.78,-9.08,-3.86,-4.03,-0.33,0.15,-0.24,-154.11,-116.14,4906.0,0.0
-13.59,-1.66,-4.53,0.46,0.75,0.01,14.42,0.88,-9.24,-3.56,-4.19,-0.06,0.23,-0.46,-159.84,-108.42,5110.0,1.0
-9.65,-1.57,-4.32,1.11,0.5,-1.08,10.69,1.63,-10.11,-3.18,-4.26,0.04,0.34,-0.36,-160.03,-114.1,7314.0,1.0
-9.97,-2.87,-4.73,-0.73,0.17,2.42,11.41,2.53,-10.02,-2.86,-4.27,0.25,0.37,-0.51,-148.81,-115.39,214.0,0.0
-8.35,-4.8,-3.67,-1.16,0.07,1.96,10.3,2.28,-10.01,-2.86,-4.36,0.06,0.33,0.08,-127.41,-113.72,418.0,0.0
-5.26,-5.51,-3.46,-0.66,-0.38,0.17,8.36,0.78,-9.68,-3.25,-4.22,-0.19,0.28,0.45,-122.14,-123.35,622.0,0.0
-9.77,-3.1,-6.45,1.47,0.91,-2.24,12.11,2.83,-8.79,-3.7,-4.07,-0.28,0.14,0.4,-154.32,-123.41,826.0,0.0
-8.77,-2.05,-5.37,0.58,0.19,-1.09,10.48,1.25,-8.99,-3.58,-4.55,0.07,0.3,-0.13,-159.05,-121.47,1030.0,0.0
-13.52,-4.38,-5.95,0.1,0.53,0.48,15.41,0.72,-8.94,-3.27,-4.71,0.17,0.28,-0.32,-143.65,-113.74,1234.0,0.0
-9.17,-5.22,-4.04,-0.77,0.41,2.11,11.29,2.28,-9.86,-3.49,-4.96,0.16,0.33,-0.16,-127.73,-113.78,1438.0,0.0
-5.75,-4.73,-3.25,-0.9,-0.33,1.34,8.12,1.64,-9.72,-3.84,-4.77,-0.03,0.34,0.29,-124.45,-119.46,1642.0,0.0
-7.74,-3.34,-3.44,0.18,0.37,-2.8,9.1,2.83,-8.93,-4.02,-4.47,-0.2,0.21,0.5,-135.83,-113.96,1846.0,0.0
-8.55,-2.77,-4.69,-0.16,-0.26,-1.66,10.14,1.69,-8.69,-3.88,-4.26,-0.13,0.24,-0.16,-149.42,-118.77,2050.0,0.0
-10.56,-1.86,-5.57,0.51,0.31,-0.83,12.08,1.02,-8.66,-3.66,-4.35,-0.13,0.14,-0.46,-161.54,-117.8,2254.0,0.0
-9.2,-5.33,-6.17,-0.57,-0.19,2.92,12.29,2.98,-9.04,-3.3,-4.59,-0.01,0.17,-0.53,-139.19,-123.86,2458.0,0.0
-7.73,-5.54,-3.96,-1.29,0.08,1.79,10.3,2.2,-9.07,-3.71,-4.91,-0.12,0.1,0.16,-125.5,-117.11,2662.0,0.0
-6.04,-7.75,-4.93,-0.79,-0.4,-0.69,10.99,1.12,-8.8,-4.07,-4.72,-0.35,0.1,0.48,-122.47,-129.21,2866.0,0.0
-8.92,-1.99,-6.39,-0.28,-0.03,-1.87,11.16,1.89,-8.25,-4.81,-4.76,-0.44,0.0,0.25,-162.67,-125.62,3070.0,0.0
-9.08,-1.47,-5.09,1.36,0.66,-1.51,10.51,2.13,-8.38,-4.25,-5.09,-0.41,-0.01,-0.18,-163.91,-119.26,3274.0,0.0
-12.68,-1.1,-4.72,-0.44,0.3,1.94,13.57,2.01,-8.52,-3.69,-5.09,-0.06,0.13,-0.44,-166.87,-110.42,3478.0,0.0
-8.65,-6.25,-5.62,-1.64,-0.03,2.69,12.06,3.15,-9.36,-3.17,-5.01,-0.13,0.16,0.04,-131.98,-123.01,3682.0,0.0
-4.62,-5.02,-3.36,-0.61,-0.33,0.97,7.61,1.2,-9.21,-3.79,-5.14,-0.43,0.12,0.57,-123.78,-126.02,3886.0,0.0
-9.63,-2.83,-7.45,2.37,0.74,-2.51,12.5,3.53,-8.3,-4.03,-4.78,-0.47,0.03,0.65,-159.17,-127.71,4090.0,0.0
-9.87,-2.93,-4.98,0.72,0.42,-1.59,11.44,1.79,-8.56,-3.79,-5.31,0.1,0.17,0.02,-149.53,-116.79,4294.0,0.0
-14.86,-3.38,-7.37,0.24,0.69,-0.13,16.93,0.74,-8.82,-3.62,-5.25,0.22,0.22,-0.31,-155.33,-116.37,4498.0,0.0
-8.7,-5.5,-5.17,-0.99,-0.19,3.07,11.52,3.23,-10.03,-3.57,-5.67,0.23,0.32,-0.27,-133.23,-120.74,4702.0,0.0
-6.06,-5.13,-3.17,-1.09,0.01,1.11,8.55,1.56,-9.77,-3.96,-5.57,-0.02,0.22,0.4,-121.7,-117.6,4906.0,0.0
-9.61,-2.9,-4.65,1.52,-0.01,-2.99,11.06,3.35,-9.03,-4.19,-5.09,-0.23,0.17,0.54,-148.04,-115.81,5110.0,1.0
-11.22,0.12,-6.55,0.23,0.11,-1.48,12.99,1.5,-9.14,-3.94,-5.0,0.12,0.14,-0.16,178.91,-120.27,7314.0,1.0
-7.53,-2.32,-4.17,0.6,0.46,-1.68,8.91,1.85,-9.56,-3.12,-5.31,0.14,0.13,-0.43,-150.94,-118.95,214.0,0.0
-12.59,-0.45,-4.64,-0.62,-0.51,1.53,13.43,1.73,-9.15,-2.96,-5.08,0.23,0.2,-0.68,-174.49,-110.22,418.0,0.0
-9.33,-5.34,-4.39,-1.36,-0.52,2.54,11.61,2.93,-9.84,-2.46,-4.99,0.06,0.06,-0.24,-129.45,-115.2,622.0,0.0
-4.3,-5.17,-2.55,-0.7,-0.02,0.77,7.19,1.04,-9.74,-3.03,-4.87,-0.22,-0.06,0.32,-116.26,-120.7,826.0,0.0
-13.09,-0.35,-6.87,2.14,0.87,-2.8,14.79,3.63,-8.65,-3.46,-4.41,-0.32,-0.05,0.41,-177.09,-117.71,1030.0,0.0
-6.38,-2.49,-3.52,-0.59,-0.62,-0.51,7.7,1.0,-9.54,-2.84,-4.9,0.17,0.13,-0.23,-144.79,-118.92,1234.0,0.0
-16.49,-2.14,-5.99,0.39,0.58,-0.27,17.67,0.75,-8.91,-2.77,-4.63,0.02,-0.02,-0.29,-160.35,-109.96,1438.0,0.0
-9.04,-4.84,-3.84,-1.18,-0.15,2.23,10.95,2.53,-10.42,-2.64,-4.9,0.1,0.1,-0.28,-128.42,-112.99,1642.0,0.0
-5.66,-4.18,-2.63,-1.38,0.02,1.06,7.51,1.74,-10.15,-3.08,-4.69,-0.16,0.05,0.22,-122.17,-114.9,1846.0,0.0
-10.38,-4.07,-2.4,0.43,0.96,-4.02,11.4,4.16,-9.25,-3.3,-4.27,-0.41,0.05,0.39,-120.52,-103.01,2050.0,0.0
-7.76,-2.39,-4.59,-0.82,-1.31,-0.56,9.33,1.64,-9.47,-3.45,-3.9,-0.24,0.23,-0.5,-152.52,-120.62,2254.0,0.0
-10.01,-2.25,-5.14,-0.12,0.07,-0.41,11.47,0.44,-9.13,-3.24,-4.04,-0.35,-0.08,-0.51,-156.36,-117.19,2458.0,0.0
-7.82,-5.94,-3.22,-1.6,-0.72,1.36,10.33,2.23,-9.31,-3.04,-4.26,-0.31,-0.05,-0.49,-118.46,-112.36,2662.0,0.0
-6.23,-5.17,-3.0,-0.11,0.07,-0.26,8.63,0.29,-9.01,-3.62,-4.05,-0.57,-0.18,-0.12,-120.1,-115.66,2866.0,0.0
-8.95,-3.42,-4.18,0.12,0.37,-0.79,10.46,0.88,-8.45,-3.93,-3.84,-0.48,-0.13,-0.15,-140.72,-115.03,3070.0,0.0
-7.89,-4.3,-3.15,-0.98,-0.52,-0.12,9.52,1.11,-8.55,-3.83,-3.91,-0.36,-0.03,-0.27,-126.28,-111.79,3274.0,0.0
-7.94,-4.24,-3.37,-0.85,-0.39,-1.0,9.61,1.37,-8.42,-3.92,-3.76,-0.48,-0.13,-0.24,-128.52,-113.01,3478.0,0.0
-8.63,-3.22,-4.66,-0.93,-0.54,0.32,10.32,1.12,-8.33,-3.98,-3.68,-0.56,-0.18,-0.39,-145.4,-118.39,3682.0,0.0
-6.57,-3.28,-4.62,0.48,0.38,-0.1,8.68,0.62,-8.39,-3.83,-3.88,-0.63,-0.26,-0.25,-144.56,-125.09,3886.0,0.0
-9.08,-2.99,-4.61,-0.34,0.24,0.08,10.61,0.42,-8.02,-3.72,-4.02,-0.41,-0.13,-0.22,-147.05,-116.9,4090.0,0.0
-6.42,-6.76,-4.52,-1.55,-0.67,0.28,10.36,1.71,-8.23,-3.57,-4.14,-0.39,-0.06,-0.16,-123.75,-125.14,4294.0,0.0
-7.05,-3.71,-4.48,0.18,0.42,-1.07,9.14,1.16,-7.87,-4.21,-4.22,-0.63,-0.18,-0.07,-140.37,-122.47,4498.0,0.0
-14.48,-0.26,-3.94,-2.82,-1.93,-0.27,15.01,3.43,-7.71,-4.11,-4.27,-0.46,-0.06,-0.27,-176.25,-105.22,4702.0,0.0
-8.86,-2.7,-1.99,-1.47,-4.37,2.86,9.47,5.42,-9.06,-3.34,-4.2,-0.94,-0.43,-0.27,-126.43,-102.66,4906.0,0.0
-8.33,1.89,4.04,-0.52,-1.3,0.4,9.45,1.46,-9.02,-3.21,-3.76,-1.04,-1.22,0.36,25.05,-64.12,5110.0,1.0
-4.55,-7.01,-5.95,2.26,1.38,-0.32,10.26,2.66,-8.88,-2.19,-2.2,-0.94,-1.24,0.36,-130.33,-142.61,7314.0,1.0
-4.11,-12.08,-4.49,0.42,1.56,-0.36,13.53,1.65,-8.02,-3.16,-2.95,-0.3,-0.71,0.23,-110.39,-137.57,7518.0,0.0
1.4,-11.55,-0.98,1.95,2.86,0.9,11.68,3.58,-7.23,-4.94,-3.26,-0.15,-0.26,0.11,-94.86,125.12,7722.0,0.0
-0.09,-8.34,-0.04,1.45,1.23,-0.43,8.34,1.95,-5.51,-6.26,-2.8,0.27,0.36,0.27,-90.26,-113.39,7926.0,0.0
-1.82,-8.29,7.61,2.56,2.27,0.82,11.4,3.52,-4.42,-6.68,-2.25,0.5,0.54,0.13,-47.46,-13.45,8130.0,0.0
-5.45,-3.79,6.18,3.14,2.73,0.53,9.07,4.19,-3.9,-7.0,-0.28,0.91,0.88,0.27,-31.49,-41.39,8334.0,0.0
-0.87,-3.9,5.39,0.47,-1.44,0.72,6.71,1.68,-4.21,-6.36,1.01,1.36,1.25,0.32,-35.94,-9.19,8538.0,0.0
-6.59,0.4,5.78,-1.7,-2.34,-1.04,8.77,3.07,-3.54,-5.87,1.89,1.18,0.71,0.4,3.91,-48.77,8742.0,0.0
-4.35,-4.08,6.76,-3.99,-2.4,0.57,9.02,4.69,-4.15,-4.61,2.67,0.61,0.1,0.11,-31.12,-32.77,8946.0,0.0
-7.79,-12.05,0.45,-4.37,-4.37,3.7,14.36,7.2,-4.19,-4.51,3.48,-0.31,-0.4,0.2,-87.88,-86.73,9150.0,0.0
-8.91,-6.37,1.3,-0.74,-2.94,3.5,11.03,4.63,-4.91,-6.02,2.88,-1.12,-1.19,0.9,-78.5,-81.73,9354.0,0.0
-5.8,0.38,3.86,-0.4,-0.93,1.12,6.98,1.51,-5.71,-6.09,2.56,-1.05,-1.54,1.42,5.6,-56.35,9558.0,0.0
-4.66,1.73,8.56,-0.4,-1.63,1.0,9.9,1.96,-5.73,-4.79,2.82,-0.92,-1.42,1.36,11.42,-28.58,9762.0,0.0
-1.02,2.01,6.67,-0.53,0.24,0.16,7.04,0.6,-5.52,-3.49,3.97,-0.81,-1.46,1.29,16.77,-8.71,9966.0,0.0
-4.12,-0.74,5.69,-0.46,3.12,-0.98,7.06,3.31,-4.62,-2.39,4.51,-0.76,-1.12,1.06,-7.39,-35.9,10170.0,0.0
-16.68,-4.49,0.01,1.2,4.37,-2.32,17.28,5.09,-4.52,-2.06,4.74,-0.7,-0.27,0.65,-89.85,-89.96,10374.0,0.0
-6.22,-5.88,-5.9,4.35,3.7,-0.05,10.4,5.71,-6.95,-2.55,3.8,-0.32,0.66,0.06,-135.12,-133.5,10578.0,0.0
-5.87,-6.45,-3.3,-2.16,0.73,1.09,9.33,2.53,-6.8,-3.21,1.86,0.62,1.26,0.04,-117.1,-119.35,10782.0,0.0
-6.92,-4.9,-8.53,-2.43,-1.94,-0.17,12.03,3.11,-6.62,-3.86,0.83,0.06,1.16,0.25,-150.15,-140.94,10986.0,0.0
-7.56,-1.43,-5.43,-0.61,0.11,0.41,9.41,0.74,-6.68,-4.07,-1.05,-0.44,0.54,0.16,-165.24,-125.68,11190.0,0.0
-6.8,-0.16,-2.94,-1.74,-0.72,-0.13,7.41,1.89,-6.85,-3.54,-1.92,-0.47,0.45,0.21,-176.87,-113.36,11394.0,0.0
-10.81,-0.06,-4.03,-0.08,0.03,-0.21,11.53,0.23,-6.84,-2.86,-2.12,-0.73,0.22,0.14,-179.11,-110.45,11598.0,0.0
-7.94,-1.78,-4.66,0.3,-0.23,0.44,9.37,0.58,-7.64,-2.3,-2.51,-0.6,0.18,0.07,-159.05,-120.41,11802.0,0.0
-7.8,-1.93,-4.69,-0.65,-0.13,0.42,9.3,0.78,-7.7,-2.2,-2.94,-0.42,0.1,0.15,-157.59,-120.99,12006.0,0.0
-8.13,4.33,-4.57,0.46,0.26,0.07,10.28,0.53,-7.72,-2.15,-3.29,-0.46,0.05,0.2,136.54,-119.32,12210.0,0.0
-8.14,0.75,-3.49,0.66,0.85,0.08,8.89,1.08,-7.8,-0.85,-3.54,-0.28,0.09,0.18,167.88,-113.22,12414.0,0.0
-7.54,-0.82,-5.36,-0.28,0.01,0.28,9.28,0.4,-7.87,-0.53,-3.53,-0.09,0.24,0.16,-171.34,-125.41,12618.0,0.0
-9.03,-1.51,-4.52,-0.11,-0.15,0.28,10.21,0.33,-7.8,-0.59,-3.9,-0.13,0.2,0.18,-161.5,-116.58,12822.0,0.0
-8.05,0.55,-5.56,0.09,-0.87,0.38,9.8,0.95,-8.05,-0.77,-4.02,-0.12,0.13,0.2,174.4,-124.66,13026.0,0.0
-10.39,-0.74,-4.23,-0.06,-0.9,0.32,11.24,0.96,-8.05,-0.51,-4.33,-0.08,-0.07,0.24,-170.08,-112.15,13230.0,0.0
-9.57,3.64,-1.09,0.46,0.15,-0.11,10.3,0.5,-8.51,-0.56,-4.31,-0.08,-0.24,0.25,106.73,-96.52,13434.0,0.0
-7.4,0.77,-2.38,0.23,-0.34,-0.12,7.81,0.43,-8.73,0.28,-3.67,0.03,-0.16,0.18,162.12,-107.79,13638.0,0.0
-9.94,1.11,-1.81,-0.34,0.64,-0.28,10.16,0.78,-8.46,0.38,-3.41,0.07,-0.19,0.12,148.39,-100.29,13842.0,0.0
-11.38,0.5,-1.93,0.29,-0.38,0.05,11.55,0.48,-8.76,0.53,-3.09,-0.01,-0.03,0.04,165.38,-99.61,14046.0,0.0
-8.76,0.27,-2.42,0.41,-0.51,0.42,9.09,0.77,-9.28,0.52,-2.86,0.05,-0.1,0.04,173.57,-105.45,14250.0,0.0
-11.33,-2.19,-4.31,-0.93,-0.44,0.28,12.32,1.06,-9.18,0.47,-2.77,0.12,-0.18,0.12,-153.05,-110.84,14454.0,0.0
-9.97,0.49,2.04,-0.63,-2.02,-0.53,10.19,2.18,-9.61,-0.06,-3.08,-0.09,-0.23,0.15,13.54,-78.45,214.0,0.0
-6.78,-0.11,4.03,-0.4,-1.4,-0.79,7.89,1.66,-9.68,0.05,-2.05,-0.2,-0.59,0.01,-1.5,-59.26,418.0,0.0
-12.02,-2.84,7.69,-0.3,2.71,-0.97,14.55,2.9,-9.1,0.02,-0.84,-0.24,-0.75,-0.15,-20.27,-57.41,622.0,0.0
-9.32,-0.36,2.57,1.09,-1.43,-0.13,9.68,1.8,-9.69,-0.55,0.87,-0.25,-0.06,-0.31,-7.97,-74.61,826.0,0.0
-6.93,-5.1,5.03,-0.38,-0.52,-0.05,9.96,0.64,-9.61,-0.51,1.21,0.02,-0.33,-0.28,-45.45,-54.04,1030.0,0.0
-2.82,-1.77,6.33,-1.14,-2.49,-0.98,7.15,2.9,-9.08,-1.43,1.97,-0.06,-0.37,-0.23,-15.6,-23.99,1234.0,0.0
-1.23,-0.41,8.68,-0.7,0.34,1.92,8.77,2.07,-7.82,-1.5,2.84,-0.28,-0.79,-0.38,-2.7,-8.06,1438.0,0.0
-2.96,-4.99,11.34,-0.74,1.29,1.01,12.74,1.8,-6.5,-1.28,4.01,-0.36,-0.57,0.08,-23.76,-14.62,1642.0,0.0
-3.17,-3.77,8.49,-0.41,0.36,-0.22,9.81,0.59,-5.8,-2.02,5.48,-0.44,-0.19,0.27,-23.94,-20.45,1846.0,0.0
-3.38,-4.76,9.0,-1.02,0.43,0.36,10.73,1.16,-5.27,-2.37,6.08,-0.43,-0.08,0.17,-27.88,-20.58,2050.0,0.0
-4.41,-5.03,7.73,-1.3,-0.13,1.04,10.23,1.67,-4.89,-2.85,6.66,-0.55,0.02,0.21,-33.04,-29.7,2254.0,0.0
-4.58,-3.65,7.15,-0.55,-0.89,0.61,9.24,1.21,-4.8,-3.29,6.88,-0.7,-0.01,0.37,-27.05,-32.64,2458.0,0.0
-4.31,-2.49,7.96,0.02,-0.62,0.57,9.39,0.84,-4.75,-3.36,6.93,-0.67,-0.19,0.42,-17.35,-28.46,2662.0,0.0
-4.47,-5.09,6.75,0.21,0.05,-0.8,9.56,0.83,-4.66,-3.18,7.14,-0.53,-0.27,0.45,-37.03,-33.48,2866.0,0.0
-1.48,-1.96,7.56,1.89,1.34,0.77,7.95,2.44,-4.62,-3.57,7.06,-0.38,-0.21,0.2,-14.54,-11.08,3070.0,0.0
-2.78,-0.4,9.97,-0.32,0.33,0.9,10.36,1.01,-4.0,-3.25,7.16,0.07,0.1,0.32,-2.3,-15.57,3274.0,0.0
-5.06,0.6,10.19,-1.7,-0.43,0.5,11.39,1.82,-3.75,-2.68,7.72,-0.01,0.15,0.43,3.35,-26.39,3478.0,0.0
-6.22,-1.3,7.86,-0.72,-0.67,4.37,10.11,4.48,-4.01,-2.02,8.22,-0.34,0.03,0.44,-9.39,-38.39,3682.0,0.0
-4.88,-1.32,9.46,-1.59,-1.97,0.13,10.73,2.54,-4.46,-1.88,8.14,-0.42,-0.11,1.23,-7.97,-27.29,3886.0,0.0
-3.67,-1.87,10.15,0.59,-0.17,-0.71,10.95,0.94,-4.54,-1.77,8.41,-0.65,-0.48,1.01,-10.42,-19.87,4090.0,0.0
1.13,-0.86,7.9,-0.7,-3.91,-1.99,8.02,4.44,-4.37,-1.79,8.76,-0.41,-0.42,0.66,-6.23,8.13,4294.0,0.0
-1.89,-3.9,9.38,-0.44,-1.22,0.29,10.34,1.33,-3.27,-1.6,8.58,-0.46,-1.12,0.13,-22.6,-11.4,4498.0,0.0
-0.36,-4.11,8.58,-0.24,-2.11,-0.13,9.52,2.13,-2.99,-2.06,8.74,-0.46,-1.14,0.16,-25.59,-2.4,4702.0,0.0
0.43,-5.67,7.99,0.2,0.57,0.14,9.8,0.62,-2.47,-2.47,8.71,-0.42,-1.33,0.11,-35.36,3.07,4906.0,0.0
-1.99,-4.4,8.26,0.55,0.85,-1.29,9.57,1.64,-1.89,-3.11,8.57,-0.29,-0.95,0.11,-28.04,-13.57,5110.0,1.0
-0.49,-2.69,9.41,-0.56,-2.53,0.01,9.8,2.59,-1.91,-3.37,8.51,-0.12,-0.59,-0.17,-15.95,-3.0,7314.0,1.0
-0.74,-3.28,9.4,-0.12,-0.01,-0.03,9.98,0.12,-1.63,-3.23,8.69,-0.21,-0.98,-0.13,-19.22,-4.47,7518.0,0.0
-0.61,-3.24,9.04,0.01,0.23,0.02,9.62,0.23,-1.45,-3.24,8.83,-0.19,-0.79,-0.11,-19.71,-3.84,7722.0,0.0
-1.77,-3.66,8.07,-0.47,-1.07,0.21,9.04,1.19,-1.28,-3.24,8.87,-0.15,-0.58,-0.08,-24.41,-12.38,7926.0,0.0
-2.76,-3.56,8.6,0.59,0.62,0.03,9.71,0.86,-1.38,-3.32,8.71,-0.22,-0.68,-0.03,-22.47,-17.78,8130.0,0.0
-3.92,-1.92,11.74,1.11,-0.6,0.31,12.52,1.3,-1.65,-3.37,8.69,-0.05,-0.42,-0.01,-9.3,-18.47,8334.0,0.0
-1.71,0.45,12.36,-1.17,0.46,-0.27,12.49,1.29,-2.11,-3.08,9.3,0.18,-0.46,0.05,2.11,-7.9,214.0,0.0
-4.61,-1.32,5.12,0.89,3.68,0.88,7.01,3.89,-2.03,-2.37,9.91,-0.09,-0.27,-0.01,-14.47,-41.97,418.0,0.0
-1.26,1.13,11.62,-1.64,-0.58,2.08,11.74,2.72,-2.54,-2.16,8.95,0.11,0.52,0.17,5.56,-6.21,622.0,0.0
1.57,0.12,6.04,-0.19,-2.0,1.49,6.24,2.5,-2.29,-1.51,9.48,-0.24,0.3,0.55,1.18,14.57,826.0,0.0
3.86,-0.41,3.86,-1.91,-0.69,3.32,5.47,3.9,-1.52,-1.18,8.8,-0.23,-0.16,0.74,-6.09,45.0,1030.0,0.0
-0.7,-1.22,9.9,0.72,0.96,4.37,10.0,4.53,-0.44,-1.03,7.81,-0.57,-0.27,1.25,-7.01,-4.06,1234.0,0.0
-3.57,1.03,11.67,0.81,0.03,0.21,12.25,0.84,-0.49,-1.06,8.23,-0.31,-0.02,1.88,5.05,-17.01,1438.0,0.0
-2.74,0.88,8.55,-0.22,0.15,1.71,9.02,1.73,-1.11,-0.65,8.92,-0.09,-0.01,1.54,5.85,-17.76,1642.0,0.0
-3.95,0.66,1.47,-0.09,-4.37,-0.87,4.26,4.45,-1.43,-0.34,8.84,-0.11,0.02,1.58,24.35,-69.63,1846.0,0.0
0.59,0.68,9.34,0.05,0.23,-0.14,9.38,0.27,-1.94,-0.14,7.37,-0.11,-0.86,1.09,4.18,3.62,2050.0,0.0
0.21,0.91,9.63,-0.12,-0.06,-0.2,9.68,0.25,-1.43,0.02,7.76,-0.08,-0.64,0.84,5.38,1.27,2254.0,0.0
0.42,0.96,9.63,0.02,0.02,-0.13,9.69,0.13,-1.1,0.2,8.14,-0.09,-0.52,0.63,5.72,2.48,2458.0,0.0
0.35,1.09,9.58,-0.11,-0.19,-0.13,9.65,0.26,-0.8,0.35,8.44,-0.06,-0.42,0.48,6.52,2.08,2662.0,0.0
1.03,1.47,9.88,0.06,-0.12,-0.2,10.04,0.24,-0.57,0.5,8.66,-0.07,-0.37,0.36,8.45,5.93,2866.0,0.0
0.65,1.67,9.84,-0.26,0.39,-0.08,10.01,0.48,-0.25,0.7,8.91,-0.05,-0.32,0.25,9.65,3.77,3070.0,0.0
0.62,1.68,10.35,0.01,-0.04,-0.34,10.51,0.34,-0.07,0.89,9.09,-0.09,-0.18,0.18,9.23,3.45,3274.0,0.0
0.61,1.48,8.31,-0.16,0.15,-0.19,8.46,0.29,0.07,1.05,9.35,-0.07,-0.15,0.08,10.13,4.2,3478.0,0.0
0.03,1.05,9.81,-0.3,0.09,-0.18,9.86,0.36,0.18,1.14,9.14,-0.09,-0.09,0.02,6.1,0.15,3682.0,0.0
-0.03,1.87,8.36,-0.21,0.06,-0.35,8.57,0.41,0.15,1.12,9.27,-0.13,-0.05,-0.02,12.57,-0.2,3886.0,0.0
-1.12,0.45,10.41,-0.31,-0.04,-0.74,10.48,0.81,0.11,1.27,9.09,-0.14,-0.03,-0.08,2.49,-6.12,4090.0,0.0
-0.9,-0.64,9.47,-0.09,0.11,-0.77,9.54,0.78,-0.13,1.1,9.35,-0.18,-0.03,-0.22,-3.86,-5.42,4294.0,0.0
0.34,0.66,7.75,-0.14,0.23,-0.69,7.78,0.74,-0.29,0.76,9.38,-0.16,0.0,-0.33,4.88,2.48,4498.0,0.0
-0.43,-0.02,8.07,-0.07,-0.21,0.16,8.08,0.27,-0.16,0.74,9.05,-0.16,0.04,-0.4,-0.12,-3.02,4702.0,0.0
-0.19,-0.07,10.69,0.18,-0.25,0.03,10.69,0.31,-0.21,0.59,8.86,-0.14,-0.01,-0.29,-0.39,-1.0,4906.0,0.0
-0.05,-0.36,10.06,0.28,0.43,-0.1,10.06,0.52,-0.21,0.45,9.22,-0.08,-0.06,-0.22,-2.07,-0.3,5110.0,0.0
0.68,1.12,9.31,-0.01,-0.32,-0.16,9.4,0.36,-0.18,0.29,9.39,0.0,0.04,-0.2,6.85,4.16,5314.0,0.0
-0.15,-0.11,10.96,-0.24,0.1,-0.18,10.96,0.32,-0.01,0.46,9.37,0.0,-0.03,-0.19,-0.55,-0.8,5518.0,0.0
-0.42,0.79,11.48,-0.06,-0.34,-0.52,11.52,0.63,-0.04,0.34,9.69,-0.05,-0.01,-0.19,3.96,-2.09,5722.0,0.0
0.47,0.37,8.91,0.3,0.13,-0.62,8.93,0.7,-0.11,0.43,10.05,-0.05,-0.07,-0.26,2.36,3.0,214.0,0.0
0.33,-0.4,9.4,0.14,-0.5,-0.9,9.41,1.04,0.0,0.42,9.82,0.02,-0.03,-0.33,-2.42,2.0,418.0,0.0
0.72,1.37,9.5,-0.28,-0.21,-1.49,9.62,1.53,0.07,0.26,9.74,0.04,-0.13,-0.44,8.22,4.31,622.0,0.0
0.47,1.23,9.38,-0.34,0.76,-1.23,9.47,1.49,0.2,0.48,9.69,-0.02,-0.14,-0.65,7.48,2.85,826.0,0.0
-0.79,1.63,9.98,0.11,-0.55,-0.34,10.14,0.66,0.25,0.63,9.63,-0.09,0.04,-0.77,9.28,-4.54,1030.0,0.0
-3.74,4.03,5.52,-0.08,-0.46,0.19,7.79,0.51,0.04,0.83,9.7,-0.05,-0.08,-0.68,36.17,-34.14,1234.0,0.0
1.59,1.96,9.07,-0.39,-0.44,-0.03,9.42,0.59,-0.71,1.47,8.86,-0.05,-0.16,-0.51,12.16,9.94,1438.0,0.0
2.07,1.58,9.21,-0.02,0.08,-2.53,9.57,2.53,-0.25,1.57,8.9,-0.12,-0.21,-0.41,9.72,12.66,1642.0,0.0
2.01,1.63,8.58,-0.2,0.43,-0.46,8.96,0.67,0.21,1.57,8.96,-0.1,-0.16,-0.84,10.76,13.16,1846.0,0.0
0.12,-0.04,10.79,-0.32,-0.45,-0.05,10.79,0.55,0.57,1.58,8.89,-0.12,-0.04,-0.76,-0.22,0.65,2050.0,0.0
-0.86,1.16,11.34,-0.8,-0.14,-0.01,11.44,0.81,0.48,1.26,9.27,-0.16,-0.12,-0.62,5.84,-4.35,2254.0,0.0
1.55,0.62,11.23,-0.34,0.34,-0.06,11.35,0.48,0.21,1.24,9.68,-0.29,-0.12,-0.5,3.17,7.88,2458.0,0.0
1.11,-0.06,9.72,-0.44,-0.07,0.83,9.79,0.94,0.48,1.12,9.99,-0.3,-0.03,-0.41,-0.35,6.52,2662.0,0.0
-1.11,-1.04,9.72,-0.48,0.56,2.1,9.84,2.23,0.61,0.88,9.94,-0.33,-0.04,-0.16,-6.1,-6.49,2866.0,0.0
-0.64,-0.18,10.59,0.15,0.37,0.15,10.61,0.43,0.26,0.5,9.89,-0.36,0.08,0.29,-0.97,-3.44,3070.0,0.0
-1.26,-0.49,9.95,0.15,0.1,0.01,10.04,0.18,0.08,0.36,10.03,-0.26,0.14,0.26,-2.82,-7.2,3274.0,0.0
-0.58,-0.37,9.76,-0.1,-0.03,-0.01,9.78,0.1,-0.18,0.19,10.02,-0.18,0.13,0.21,-2.16,-3.41,3478.0,0.0
-0.59,-0.53,9.6,-0.11,0.01,-0.01,9.63,0.11,-0.26,0.08,9.96,-0.16,0.1,0.17,-3.16,-3.53,3682.0,0.0
-0.62,-0.48,9.71,-0.1,0.01,-0.01,9.74,0.1,-0.33,-0.04,9.89,-0.15,0.08,0.13,-2.82,-3.65,3886.0,0.0
-0.63,-0.48,9.63,-0.11,0.01,-0.01,9.66,0.11,-0.39,-0.13,9.86,-0.14,0.07,0.1,-2.88,-3.77,4090.0,0.0
-0.64,-0.4,9.6,-0.1,0.0,-0.01,9.63,0.1,-0.44,-0.2,9.81,-0.13,0.05,0.08,-2.41,-3.79,4294.0,0.0
-0.72,-0.53,9.73,-0.1,0.0,-0.01,9.77,0.1,-0.48,-0.24,9.77,-0.13,0.04,0.06,-3.1,-4.25,4498.0,0.0
-0.46,-0.43,9.87,-0.09,-0.01,-0.01,9.89,0.1,-0.53,-0.3,9.76,-0.12,0.03,0.05,-2.47,-2.7,4702.0,0.0
-0.52,-0.42,9.6,-0.1,0.0,-0.01,9.63,0.1,-0.51,-0.32,9.78,-0.12,0.03,0.04,-2.5,-3.13,4906.0,0.0
-0.62,-0.5,9.73,-0.1,0.0,-0.01,9.76,0.1,-0.52,-0.34,9.75,-0.11,0.02,0.03,-2.93,-3.63,5110.0,0.0
-0.58,-0.42,9.69,-0.1,0.0,-0.01,9.72,0.1,-0.54,-0.37,9.74,-0.11,0.02,0.02,-2.48,-3.45,5314.0,0.0
-0.49,-0.42,9.7,-0.11,0.01,-0.01,9.72,0.11,-0.55,-0.38,9.73,-0.11,0.01,0.02,-2.5,-2.91,5518.0,0.0
-0.55,-0.44,9.65,-0.1,0.01,-0.01,9.67,0.1,-0.54,-0.39,9.73,-0.11,0.01,0.01,-2.61,-3.25,5722.0,0.0
-0.64,-0.45,9.78,-0.1,0.01,-0.01,9.81,0.1,-0.54,-0.4,9.71,-0.11,0.01,0.01,-2.61,-3.74,5926.0,0.0
-0.58,-0.39,9.75,-0.11,0.0,-0.01,9.78,0.11,-0.56,-0.41,9.72,-0.11,0.01,0.0,-2.29,-3.43,6130.0,0.0
-0.51,-0.39,9.73,-0.11,0.01,-0.01,9.76,0.11,-0.56,-0.41,9.73,-0.11,0.01,0.0,-2.28,-2.97,6334.0,0.0
-0.56,-0.44,9.68,-0.1,0.0,-0.01,9.7,0.1,-0.55,-0.4,9.73,-0.11,0.01,0.0,-2.61,-3.3,6538.0,0.0
-0.58,-0.46,9.62,-0.1,0.0,-0.01,9.65,0.1,-0.55,-0.41,9.72,-0.11,0.01,0.0,-2.75,-3.45,6742.0,0.0
-0.58,-0.4,9.73,-0.11,0.01,-0.01,9.76,0.11,-0.56,-0.42,9.7,-0.11,0.01,0.0,-2.37,-3.42,6946.0,0.0
-0.55,-0.37,9.76,-0.11,0.02,-0.01,9.78,0.11,-0.56,-0.42,9.71,-0.11,0.01,-0.01,-2.16,-3.24,7150.0,0.0
-0.59,-0.43,9.7,-0.11,0.01,-0.01,9.73,0.11,-0.56,-0.41,9.72,-0.11,0.01,-0.01,-2.56,-3.47,7354.0,0.0
-0.59,-0.44,9.73,-0.11,0.0,-0.01,9.76,0.11,-0.57,-0.41,9.71,-0.11,0.01,-0.01,-2.59,-3.46,7558.0,0.0
-0.62,-0.44,9.62,-0.11,0.01,-0.01,9.65,0.11,-0.57,-0.42,9.72,-0.11,0.01,-0.01,-2.64,-3.67,7762.0,0.0
-0.57,-0.45,9.71,-0.1,0.0,-0.01,9.74,0.11,-0.58,-0.42,9.7,-0.11,0.01,-0.01,-2.68,-3.36,7966.0,0.0
-0.58,-0.45,9.68,-0.1,0.01,-0.01,9.71,0.1,-0.58,-0.43,9.7,-0.11,0.01,-0.01,-2.66,-3.42,8170.0,0.0
-0.6,-0.4,9.69,-0.11,0.01,-0.01,9.72,0.11,-0.58,-0.43,9.7,-0.11,0.01,-0.01,-2.39,-3.53,8374.0,0.0
-0.6,-0.42,9.73,-0.1,0.01,-0.01,9.76,0.11,-0.58,-0.43,9.7,-0.11,0.01,-0.01,-2.49,-3.52,8578.0,0.0
-0.63,-0.48,9.67,-0.1,0.0,-0.01,9.71,0.1,-0.59,-0.43,9.7,-0.11,0.01,-0.01,-2.83,-3.75,8782.0,0.0
-0.61,-0.41,9.64,-0.1,0.0,-0.01,9.67,0.1,-0.6,-0.44,9.7,-0.11,0.01,-0.01,-2.45,-3.61,8986.0,0.0
-0.57,-0.4,9.77,-0.1,0.0,-0.01,9.79,0.1,-0.6,-0.43,9.69,-0.11,0.01,-0.01,-2.33,-3.34,9190.0,0.0
-0.64,-0.46,9.68,-0.1,0.01,-0.01,9.71,0.11,-0.59,-0.43,9.7,-0.1,0.0,-0.01,-2.72,-3.79,9394.0,0.0
-0.54,-0.39,9.69,-0.1,0.0,-0.01,9.71,0.1,-0.6,-0.43,9.7,-0.1,0.01,-0.01,-2.29,-3.21,9598.0,0.0
-0.58,-0.38,9.65,-0.1,0.01,-0.01,9.67,0.11,-0.59,-0.42,9.7,-0.1,0.0,-0.01,-2.27,-3.46,9802.0,0.0
-0.56,-0.5,9.78,-0.1,0.0,-0.01,9.81,0.1,-0.59,-0.42,9.69,-0.1,0.0,-0.01,-2.91,-3.25,10006.0,0.0
-0.66,-0.42,9.68,-0.11,0.01,-0.01,9.71,0.11,-0.58,-0.43,9.71,-0.1,0.0,-0.01,-2.48,-3.88,10210.0,0.0
-0.61,-0.43,9.76,-0.1,0.01,-0.01,9.79,0.1,-0.6,-0.43,9.7,-0.1,0.0,-0.01,-2.51,-3.55,10414.0,0.0
-0.55,-0.44,9.69,-0.1,0.0,-0.01,9.72,0.1,-0.6,-0.43,9.71,-0.1,0.0,-0.01,-2.57,-3.27,10618.0,0.0
-0.62,-0.43,9.67,-0.11,0.01,-0.01,9.7,0.11,-0.59,-0.43,9.71,-0.1,0.0,-0.01,-2.54,-3.66,10822.0,0.0
-0.63,-0.5,9.79,-0.11,0.0,-0.01,9.82,0.11,-0.6,-0.43,9.7,-0.1,0.01,-0.01,-2.91,-3.68,11026.0,0.0
-0.51,-0.48,9.7,-0.1,0.01,-0.01,9.72,0.11,-0.6,-0.44,9.72,-0.11,0.0,-0.01,-2.81,-3.04,11230.0,0.0
-0.54,-0.45,9.64,-0.1,0.0,-0.01,9.66,0.1,-0.58,-0.45,9.71,-0.1,0.01,-0.01,-2.65,-3.2,11434.0,0.0
-0.6,-0.43,9.7,-0.11,0.01,-0.01,9.72,0.11,-0.58,-0.45,9.7,-0.1,0.0,-0.01,-2.53,-3.55,11638.0,0.0
-0.61,-0.46,9.77,-0.1,0.0,-0.01,9.8,0.1,-0.58,-0.45,9.7,-0.11,0.01,-0.01,-2.71,-3.55,11842.0,0.0
-0.57,-0.4,9.6,-0.1,0.0,-0.01,9.62,0.11,-0.59,-0.45,9.71,-0.11,0.0,-0.01,-2.39,-3.38,12046.0,0.0
-0.51,-0.45,9.65,-0.1,0.0,-0.01,9.68,0.1,-0.58,-0.44,9.69,-0.1,0.0,-0.01,-2.66,-3.02,12250.0,0.0
-0.65,-0.43,9.69,-0.1,0.01,-0.01,9.72,0.1,-0.57,-0.44,9.68,-0.1,0.0,-0.01,-2.52,-3.82,12454.0,0.0
-0.62,-0.51,9.68,-0.1,0.0,-0.01,9.72,0.11,-0.58,-0.44,9.68,-0.1,0.0,-0.01,-3.01,-3.65,12658.0,0.0
-0.64,-0.4,9.63,-0.11,0.01,-0.01,9.66,0.11,-0.59,-0.45,9.68,-0.1,0.0,-0.01,-2.36,-3.83,12862.0,0.0
-0.56,-0.41,9.72,-0.1,0.01,-0.01,9.75,0.1,-0.6,-0.44,9.67,-0.1,0.0,-0.01,-2.41,-3.28,13066.0,0.0
-0.61,-0.44,9.63,-0.1,0.0,-0.01,9.66,0.11,-0.59,-0.43,9.68,-0.1,0.0,-0.01,-2.6,-3.6,13270.0,0.0
-0.61,-0.46,9.67,-0.1,0.0,-0.01,9.7,0.1,-0.6,-0.44,9.67,-0.1,0.0,-0.01,-2.72,-3.58,13474.0,0.0
-0.65,-0.44,9.65,-0.1,0.0,-0.01,9.69,0.1,-0.6,-0.44,9.67,-0.1,0.0,-0.01,-2.63,-3.87,13678.0,0.0
-0.58,-0.38,9.71,-0.1,0.01,-0.01,9.73,0.11,-0.61,-0.44,9.67,-0.1,0.0,-0.01,-2.25,-3.42,13882.0,0.0
-0.48,-0.39,9.67,-0.11,0.0,-0.01,9.69,0.11,-0.6,-0.43,9.68,-0.1,0.0,-0.01,-2.3,-2.82,14086.0,0.0
-0.62,-0.43,9.7,-0.11,0.01,-0.01,9.73,0.11,-0.58,-0.42,9.68,-0.1,0.0,-0.01,-2.56,-3.64,14290.0,0.0
-0.64,-0.45,9.7,-0.1,0.0,-0.01,9.73,0.1,-0.59,-0.42,9.68,-0.1,0.0,-0.01,-2.64,-3.8,14494.0,0.0
-0.62,-0.35,9.65,-0.11,0.01,-0.01,9.68,0.11,-0.6,-0.43,9.68,-0.1,0.0,-0.01,-2.06,-3.65,14698.0,0.0
-0.49,-0.46,9.65,-0.11,0.0,-0.01,9.68,0.11,-0.6,-0.41,9.68,-0.1,0.0,-0.01,-2.73,-2.9,14902.0,0.0
-0.65,-0.43,9.6,-0.1,0.01,-0.01,9.63,0.11,-0.58,-0.42,9.67,-0.1,0.0,-0.01,-2.54,-3.87,15106.0,0.0
-0.64,-0.45,9.69,-0.1,0.0,-0.01,9.72,0.1,-0.59,-0.42,9.66,-0.1,0.0,-0.01,-2.67,-3.8,15310.0,0.0
-0.58,-0.37,9.7,-0.1,0.01,-0.01,9.72,0.11,-0.6,-0.43,9.66,-0.1,0.0,-0.01,-2.18,-3.42,15514.0,0.0
-0.57,-0.53,9.77,-0.1,0.0,-0.01,9.8,0.11,-0.6,-0.42,9.67,-0.1,0.0,-0.01,-3.09,-3.32,15718.0,0.0
-0.65,-0.39,9.67,-0.11,0.01,-0.01,9.7,0.11,-0.59,-0.44,9.69,-0.1,0.0,-0.01,-2.3,-3.85,15922.0,0.0
-0.6,-0.53,9.71,-0.1,0.0,-0.01,9.74,0.1,-0.6,-0.43,9.69,-0.1,0.0,-0.01,-3.13,-3.56,16126.0,0.0
-0.6,-0.37,9.66,-0.11,0.01,-0.01,9.68,0.11,-0.6,-0.45,9.69,-0.1,0.0,-0.01,-2.17,-3.57,16330.0,0.0
-0.61,-0.48,9.71,-0.1,0.0,-0.01,9.74,0.1,-0.6,-0.43,9.69,-0.11,0.0,-0.01,-2.85,-3.61,16534.0,0.0
-0.6,-0.43,9.68,-0.1,0.01,-0.01,9.71,0.11,-0.61,-0.44,9.69,-0.1,0.0,-0.01,-2.56,-3.55,16738.0,0.0
-0.66,-0.44,9.74,-0.1,0.01,-0.01,9.77,0.1,-0.6,-0.44,9.69,-0.1,0.0,-0.01,-2.56,-3.85,16942.0,0.0
-0.65,-0.47,9.68,-0.11,0.0,-0.01,9.71,0.11,-0.61,-0.44,9.7,-0.1,0.0,-0.01,-2.78,-3.85,17146.0,0.0
-0.54,-0.36,9.73,-0.11,0.01,-0.01,9.75,0.11,-0.62,-0.45,9.69,-0.1,0.0,-0.01,-2.13,-3.18,17350.0,0.0
-0.59,-0.45,9.72,-0.1,0.0,-0.01,9.74,0.1,-0.61,-0.43,9.7,-0.1,0.0,-0.01,-2.64,-3.48,17554.0,0.0
-0.64,-0.44,9.65,-0.1,0.0,-0.01,9.68,0.1,-0.6,-0.43,9.7,-0.1,0.0,-0.01,-2.6,-3.79,17758.0,0.0
-0.58,-0.44,9.75,-0.1,0.0,-0.01,9.78,0.1,-0.61,-0.43,9.69,-0.1,0.0,-0.01,-2.56,-3.39,17962.0,0.0
-0.55,-0.38,9.63,-0.1,0.0,-0.01,9.65,0.11,-0.6,-0.43,9.7,-0.1,0.0,-0.01,-2.26,-3.24,18166.0,0.0
-0.5,-0.43,9.73,-0.1,0.0,-0.01,9.76,0.11,-0.59,-0.42,9.69,-0.1,0.0,-0.01,-2.55,-2.94,18370.0,0.0
-0.65,-0.41,9.67,-0.1,0.0,-0.01,9.7,0.1,-0.57,-0.43,9.7,-0.1,0.0,-0.01,-2.43,-3.83,18574.0,0.0
-0.62,-0.47,9.69,-0.1,0.0,-0.01,9.72,0.1,-0.59,-0.42,9.69,-0.1,0.0,-0.01,-2.79,-3.68,18778.0,0.0
-0.59,-0.43,9.68,-0.1,0.01,-0.01,9.71,0.1,-0.6,-0.43,9.69,-0.1,0.0,-0.01,-2.55,-3.51,18982.0,0.0
-0.57,-0.5,9.77,-0.1,0.0,-0.01,9.8,0.1,-0.59,-0.43,9.69,-0.1,0.0,-0.01,-2.93,-3.33,19186.0,0.0
-0.58,-0.47,9.69,-0.11,0.0,-0.01,9.72,0.11,-0.59,-0.45,9.71,-0.1,0.0,-0.01,-2.76,-3.41,19390.0,0.0
-0.61,-0.49,9.66,-0.1,0.01,-0.01,9.69,0.1,-0.59,-0.45,9.7,-0.1,0.0,-0.01,-2.88,-3.62,19594.0,0.0
-0.58,-0.4,9.79,-0.11,0.0,-0.01,9.82,0.11,-0.59,-0.46,9.69,-0.1,0.0,-0.01,-2.31,-3.39,19798.0,0.0
-0.57,-0.4,9.67,-0.1,0.01,-0.01,9.7,0.1,-0.59,-0.44,9.71,-0.1,0.0,-0.01,-2.38,-3.34,20002.0,0.0
-0.61,-0.44,9.77,-0.1,0.0,-0.01,9.8,0.1,-0.58,-0.44,9.71,-0.1,0.0,-0.01,-2.57,-3.57,20206.0,0.0
-0.58,-0.4,9.64,-0.1,0.01,-0.01,9.67,0.11,-0.59,-0.44,9.72,-0.1,0.0,-0.01,-2.39,-3.45,20410.0,0.0
-0.59,-0.49,9.66,-0.11,0.0,-0.01,9.69,0.11,-0.59,-0.43,9.7,-0.1,0.0,-0.01,-2.88,-3.48,20614.0,0.0
-0.56,-0.4,9.68,-0.1,0.0,-0.01,9.71,0.1,-0.59,-0.44,9.69,-0.1,0.0,-0.01,-2.36,-3.32,20818.0,0.0
-0.61,-0.49,9.73,-0.11,0.0,-0.01,9.76,0.11,-0.58,-0.43,9.69,-0.1,0.0,-0.01,-2.87,-3.56,21022.0,0.0
-0.59,-0.41,9.71,-0.11,0.0,-0.01,9.74,0.11,-0.59,-0.44,9.7,-0.1,0.0,-0.01,-2.41,-3.47,21226.0,0.0
-0.66,-0.5,9.71,-0.1,0.0,-0.01,9.75,0.11,-0.59,-0.44,9.7,-0.11,0.0,-0.01,-2.92,-3.88,21430.0,0.0
-0.57,-0.44,9.78,-0.1,0.01,-0.01,9.8,0.11,-0.6,-0.45,9.7,-0.11,0.0,-0.01,-2.59,-3.35,21634.0,0.0
-0.52,-0.44,9.73,-0.1,0.0,-0.01,9.75,0.1,-0.6,-0.45,9.72,-0.11,0.0,-0.01,-2.61,-3.04,21838.0,0.0
-0.61,-0.47,9.72,-0.1,0.01,-0.01,9.75,0.11,-0.58,-0.45,9.72,-0.1,0.0,-0.01,-2.79,-3.59,22042.0,0.0
-0.59,-0.45,9.68,-0.1,0.0,-0.01,9.71,0.1,-0.59,-0.45,9.72,-0.1,0.0,-0.01,-2.66,-3.5,22246.0,0.0
-0.61,-0.41,9.61,-0.1,0.01,-0.01,9.63,0.1,-0.59,-0.45,9.71,-0.1,0.0,-0.01,-2.44,-3.61,22450.0,0.0
-0.65,-0.5,9.72,-0.11,0.0,-0.01,9.76,0.11,-0.59,-0.44,9.69,-0.1,0.0,-0.01,-2.92,-3.83,22654.0,0.0
-0.67,-0.45,9.69,-0.1,0.0,-0.01,9.72,0.1,-0.6,-0.45,9.7,-0.1,0.0,-0.01,-2.66,-3.96,22858.0,0.0
-0.63,-0.4,9.71,-0.1,0.0,-0.01,9.74,0.1,-0.62,-0.45,9.7,-0.1,0.0,-0.01,-2.36,-3.74,23062.0,0.0
-0.55,-0.36,9.61,-0.11,0.01,-0.01,9.64,0.11,-0.62,-0.44,9.7,-0.1,0.0,-0.01,-2.15,-3.26,23266.0,0.0
-0.57,-0.42,9.68,-0.1,0.0,-0.01,9.71,0.1,-0.61,-0.43,9.68,-0.1,0.0,-0.01,-2.51,-3.4,23470.0,0.0
-0.63,-0.37,9.73,-0.1,0.01,-0.01,9.75,0.11,-0.6,-0.43,9.68,-0.1,0.0,-0.01,-2.19,-3.73,23674.0,0.0
-0.63,-0.44,9.7,-0.1,0.0,-0.01,9.73,0.11,-0.61,-0.41,9.69,-0.1,0.0,-0.01,-2.61,-3.7,23878.0,0.0
-0.59,-0.44,9.68,-0.11,0.0,-0.01,9.71,0.11,-0.61,-0.42,9.69,-0.1,0.0,-0.01,-2.58,-3.49,24082.0,0.0
-0.52,-0.47,9.78,-0.1,0.0,-0.01,9.81,0.1,-0.61,-0.42,9.69,-0.1,0.0,-0.01,-2.77,-3.05,24286.0,0.0
-0.64,-0.46,9.75,-0.1,0.0,-0.01,9.78,0.1,-0.59,-0.43,9.71,-0.1,0.0,-0.01,-2.73,-3.75,24490.0,0.0
-0.62,-0.45,9.69,-0.11,0.01,-0.01,9.72,0.11,-0.6,-0.44,9.72,-0.1,0.0,-0.01,-2.63,-3.69,24694.0,0.0
-0.52,-0.42,9.74,-0.11,0.0,-0.01,9.76,0.11,-0.6,-0.44,9.71,-0.1,0.0,-0.01,-2.45,-3.04,24898.0,0.0
-0.54,-0.42,9.69,-0.1,0.0,-0.01,9.71,0.11,-0.59,-0.44,9.72,-0.1,0.0,-0.01,-2.48,-3.21,25102.0,0.0
-0.63,-0.44,9.65,-0.1,0.0,-0.01,9.68,0.1,-0.58,-0.43,9.71,-0.1,0.0,-0.01,-2.59,-3.75,25306.0,0.0
-0.68,-0.43,9.61,-0.11,0.01,-0.01,9.65,0.11,-0.59,-0.43,9.7,-0.1,0.0,-0.01,-2.54,-4.05,25510.0,0.0
-0.56,-0.46,9.69,-0.1,0.0,-0.01,9.72,0.1,-0.61,-0.43,9.68,-0.1,0.0,-0.01,-2.7,-3.31,25714.0,0.0
-0.55,-0.41,9.73,-0.11,0.01,-0.01,9.75,0.11,-0.6,-0.44,9.68,-0.1,0.0,-0.01,-2.41,-3.24,25918.0,0.0
-0.53,-0.49,9.67,-0.1,0.0,-0.01,9.69,0.11,-0.59,-0.43,9.69,-0.1,0.0,-0.01,-2.88,-3.15,26122.0,0.0
-0.62,-0.42,9.7,-0.1,0.01,-0.01,9.73,0.1,-0.58,-0.44,9.69,-0.1,0.0,-0.01,-2.47,-3.69,26326.0,0.0
-0.64,-0.47,9.65,-0.1,0.0,-0.01,9.69,0.1,-0.59,-0.44,9.69,-0.1,0.0,-0.01,-2.81,-3.82,26530.0,0.0
-0.55,-0.42,9.75,-0.1,0.01,-0.01,9.78,0.11,-0.6,-0.44,9.68,-0.1,0.0,-0.01,-2.46,-3.25,26734.0,0.0
-0.55,-0.48,9.7,-0.11,0.0,-0.01,9.72,0.11,-0.59,-0.44,9.7,-0.1,0.0,-0.01,-2.81,-3.25,26938.0,0.0
-0.63,-0.45,9.71,-0.1,0.01,-0.01,9.74,0.1,-0.58,-0.45,9.7,-0.1,0.0,-0.01,-2.63,-3.73,27142.0,0.0
-0.58,-0.49,9.76,-0.1,0.01,-0.01,9.79,0.1,-0.59,-0.45,9.7,-0.1,0.01,-0.01,-2.85,-3.41,27346.0,0.0
-0.62,-0.45,9.72,-0.11,0.0,-0.01,9.75,0.11,-0.59,-0.45,9.71,-0.1,0.01,-0.01,-2.65,-3.64,27550.0,0.0
-0.53,-0.42,9.7,-0.11,0.0,-0.01,9.72,0.11,-0.6,-0.45,9.71,-0.1,0.01,-0.01,-2.5,-3.14,27754.0,0.0
-0.61,-0.38,9.71,-0.1,0.0,-0.01,9.73,0.11,-0.58,-0.45,9.71,-0.1,0.0,-0.01,-2.23,-3.6,27958.0,0.0
-0.62,-0.45,9.77,-0.1,0.0,-0.01,9.8,0.1,-0.59,-0.43,9.71,-0.1,0.0,-0.01,-2.64,-3.63,28162.0,0.0
-0.53,-0.48,9.72,-0.11,0.0,-0.01,9.75,0.11,-0.59,-0.44,9.72,-0.1,0.0,-0.01,-2.85,-3.14,28366.0,0.0
-0.59,-0.45,9.7,-0.1,0.0,-0.01,9.73,0.11,-0.58,-0.45,9.72,-0.1,0.0,-0.01,-2.67,-3.47,28570.0,0.0
-0.58,-0.45,9.68,-0.1,0.0,-0.01,9.71,0.11,-0.58,-0.45,9.72,-0.1,0.0,-0.01,-2.69,-3.44,28774.0,0.0
-0.63,-0.43,9.68,-0.1,0.01,-0.01,9.71,0.1,-0.58,-0.45,9.71,-0.1,0.0,-0.01,-2.55,-3.72,28978.0,0.0
-0.59,-0.46,9.66,-0.1,0.0,-0.01,9.69,0.1,-0.59,-0.45,9.7,-0.1,0.0,-0.01,-2.75,-3.5,29182.0,0.0
-0.51,-0.37,9.62,-0.11,0.01,-0.01,9.64,0.11,-0.59,-0.45,9.7,-0.1,0.0,-0.01,-2.19,-3.06,29386.0,0.0
-0.58,-0.44,9.69,-0.1,0.0,-0.01,9.72,0.1,-0.58,-0.43,9.68,-0.1,0.0,-0.01,-2.59,-3.43,29590.0,0.0
-0.64,-0.48,9.67,-0.1,0.01,-0.01,9.7,0.1,-0.58,-0.43,9.68,-0.1,0.0,-0.01,-2.86,-3.8,29794.0,0.0
-0.66,-0.44,9.79,-0.1,0.0,-0.01,9.82,0.1,-0.59,-0.44,9.68,-0.1,0.0,-0.01,-2.58,-3.88,29998.0,0.0
-0.56,-0.45,9.72,-0.1,0.0,-0.01,9.74,0.1,-0.61,-0.44,9.7,-0.1,0.0,-0.01,-2.62,-3.3,30202.0,0.0
-0.56,-0.4,9.66,-0.1,0.0,-0.01,9.69,0.1,-0.6,-0.44,9.7,-0.1,0.0,-0.01,-2.36,-3.29,30406.0,0.0
-0.6,-0.49,9.7,-0.1,0.01,-0.01,9.73,0.11,-0.59,-0.43,9.7,-0.1,0.0,-0.01,-2.88,-3.56,30610.0,0.0
-0.58,-0.51,9.64,-0.1,0.0,-0.01,9.67,0.1,-0.59,-0.45,9.7,-0.1,0.0,-0.01,-3.04,-3.45,30814.0,0.0
-0.56,-0.38,9.73,-0.1,0.01,-0.01,9.76,0.1,-0.59,-0.46,9.68,-0.1,0.0,-0.01,-2.25,-3.27,31018.0,0.0
-0.59,-0.45,9.64,-0.1,0.0,-0.01,9.67,0.1,-0.58,-0.44,9.69,-0.1,0.0,-0.01,-2.67,-3.51,31222.0,0.0
-0.54,-0.42,9.67,-0.11,0.01,-0.01,9.69,0.11,-0.58,-0.44,9.68,-0.1,0.0,-0.01,-2.5,-3.18,31426.0,0.0
-0.63,-0.46,9.73,-0.1,0.0,-0.01,9.76,0.1,-0.57,-0.44,9.68,-0.1,0.0,-0.01,-2.7,-3.73,31630.0,0.0
-0.65,-0.43,9.64,-0.11,0.0,-0.01,9.67,0.11,-0.59,-0.44,9.69,-0.1,0.0,-0.01,-2.56,-3.84,31834.0,0.0
-0.55,-0.45,9.69,-0.1,0.0,-0.01,9.72,0.1,-0.6,-0.44,9.68,-0.1,0.0,-0.01,-2.66,-3.27,32038.0,0.0
-0.56,-0.43,9.71,-0.11,0.01,-0.01,9.73,0.11,-0.59,-0.44,9.68,-0.1,0.0,-0.01,-2.51,-3.32,32242.0,0.0
-0.57,-0.42,9.72,-0.1,0.0,-0.01,9.75,0.1,-0.58,-0.44,9.69,-0.11,0.0,-0.01,-2.47,-3.37,32446.0,0.0
-0.62,-0.47,9.66,-0.11,0.01,-0.01,9.69,0.11,-0.58,-0.44,9.69,-0.1,0.0,-0.01,-2.81,-3.69,32650.0,0.0
-0.55,-0.47,9.72,-0.1,0.0,-0.01,9.75,0.1,-0.59,-0.44,9.69,-0.11,0.0,-0.01,-2.76,-3.24,32854.0,0.0
-0.53,-0.41,9.65,-0.1,0.0,-0.01,9.67,0.11,-0.58,-0.45,9.69,-0.1,0.0,-0.01,-2.44,-3.17,33058.0,0.0
-0.61,-0.44,9.69,-0.1,0.0,-0.01,9.72,0.1,-0.57,-0.44,9.68,-0.1,0.0,-0.01,-2.62,-3.6,33262.0,0.0
-0.55,-0.38,9.72,-0.11,0.0,-0.01,9.74,0.11,-0.58,-0.44,9.69,-0.1,0.0,-0.01,-2.23,-3.24,33466.0,0.0
-0.6,-0.4,9.75,-0.1,0.0,-0.01,9.78,0.1,-0.57,-0.43,9.69,-0.1,0.0,-0.01,-2.32,-3.51,33670.0,0.0
-0.54,-0.4,9.7,-0.11,0.0,-0.01,9.72,0.11,-0.58,-0.42,9.7,-0.1,0.0,-0.01,-2.33,-3.18,33874.0,0.0
-0.55,-0.45,9.73,-0.1,0.0,-0.01,9.76,0.11,-0.57,-0.42,9.7,-0.1,0.0,-0.01,-2.68,-3.25,34078.0,0.0
-0.61,-0.41,9.67,-0.1,0.0,-0.01,9.69,0.1,-0.57,-0.42,9.71,-0.1,0.0,-0.01,-2.45,-3.6,34282.0,0.0
-0.56,-0.38,9.74,-0.1,0.01,-0.01,9.76,0.11,-0.58,-0.42,9.7,-0.1,0.0,-0.01,-2.22,-3.28,34486.0,0.0
-0.53,-0.4,9.58,-0.1,0.0,-0.01,9.6,0.1,-0.57,-0.41,9.71,-0.1,0.0,-0.01,-2.4,-3.18,34690.0,0.0
-0.57,-0.43,9.75,-0.11,0.0,-0.01,9.77,0.11,-0.56,-0.41,9.68,-0.1,0.0,-0.01,-2.53,-3.32,34894.0,0.0
-0.58,-0.42,9.71,-0.1,0.0,-0.01,9.74,0.1,-0.56,-0.42,9.7,-0.1,0.0,-0.01,-2.46,-3.41,35098.0,0.0
-0.62,-0.48,9.76,-0.11,0.01,-0.01,9.79,0.11,-0.57,-0.42,9.7,-0.1,0.0,-0.01,-2.8,-3.61,35302.0,0.0
-0.58,-0.46,9.75,-0.1,0.0,-0.01,9.78,0.1,-0.58,-0.43,9.71,-0.1,0.0,-0.01,-2.71,-3.39,35506.0,0.0
-0.51,-0.4,9.68,-0.1,0.01,-0.01,9.71,0.1,-0.58,-0.43,9.72,-0.1,0.0,-0.01,-2.35,-3.03,35710.0,0.0
-0.59,-0.47,9.65,-0.1,0.0,-0.01,9.68,0.1,-0.56,-0.43,9.71,-0.1,0.0,-0.01,-2.77,-3.48,35914.0,0.0
-0.62,-0.4,9.73,-0.11,0.01,-0.01,9.75,0.11,-0.57,-0.44,9.7,-0.1,0.0,-0.01,-2.35,-3.68,36118.0,0.0
-0.53,-0.57,9.69,-0.1,0.0,-0.01,9.72,0.11,-0.58,-0.43,9.7,-0.1,0.01,-0.01,-3.34,-3.11,36322.0,0.0
-0.55,-0.46,9.79,-0.1,0.01,-0.01,9.81,0.1,-0.57,-0.46,9.7,-0.1,0.01,-0.01,-2.7,-3.23,36526.0,0.0
-0.59,-0.46,9.76,-0.1,0.0,-0.01,9.79,0.1,-0.57,-0.46,9.72,-0.1,0.01,-0.01,-2.7,-3.48,36730.0,0.0
-0.58,-0.41,9.74,-0.1,0.0,-0.01,9.77,0.11,-0.57,-0.46,9.73,-0.1,0.01,-0.01,-2.43,-3.43,36934.0,0.0
-0.62,-0.43,9.7,-0.11,0.0,-0.01,9.73,0.11,-0.57,-0.45,9.73,-0.1,0.0,-0.01,-2.53,-3.68,37138.0,0.0
-0.61,-0.41,9.63,-0.1,0.0,-0.01,9.66,0.1,-0.58,-0.44,9.72,-0.1,0.0,-0.01,-2.43,-3.6,37342.0,0.0
-0.59,-0.41,9.73,-0.11,0.0,-0.01,9.76,0.11,-0.59,-0.44,9.71,-0.1,0.0,-0.01,-2.39,-3.49,37546.0,0.0
-0.59,-0.49,9.68,-0.1,0.01,-0.01,9.71,0.11,-0.59,-0.43,9.71,-0.1,0.0,-0.01,-2.87,-3.5,37750.0,0.0
-0.6,-0.49,9.7,-0.11,0.01,-0.01,9.73,0.11,-0.59,-0.44,9.71,-0.1,0.0,-0.01,-2.87,-3.52,37954.0,0.0
-0.55,-0.45,9.68,-0.11,0.0,-0.01,9.71,0.11,-0.59,-0.45,9.7,-0.11,0.0,-0.01,-2.65,-3.26,38158.0,0.0
-0.55,-0.44,9.81,-0.11,0.01,-0.01,9.83,0.11,-0.58,-0.45,9.7,-0.11,0.0,-0.01,-2.54,-3.19,38362.0,0.0
-0.62,-0.47,9.65,-0.1,0.0,-0.01,9.68,0.1,-0.58,-0.45,9.72,-0.11,0.01,-0.01,-2.81,-3.68,38566.0,0.0
-0.65,-0.46,9.64,-0.1,0.0,-0.01,9.67,0.1,-0.58,-0.45,9.71,-0.11,0.01,-0.01,-2.74,-3.86,38770.0,0.0
-0.53,-0.44,9.72,-0.11,0.01,-0.01,9.74,0.11,-0.6,-0.45,9.69,-0.1,0.0,-0.01,-2.57,-3.1,38974.0,0.0
-0.59,-0.42,9.81,-0.11,0.0,-0.01,9.84,0.11,-0.58,-0.45,9.7,-0.11,0.0,-0.01,-2.43,-3.42,39178.0,0.0
-0.51,-0.45,9.65,-0.1,0.01,-0.01,9.67,0.1,-0.58,-0.44,9.72,-0.11,0.0,-0.01,-2.67,-3.05,39382.0,0.0
-0.62,-0.46,9.74,-0.11,0.01,-0.01,9.77,0.11,-0.57,-0.45,9.71,-0.11,0.0,-0.01,-2.73,-3.66,39586.0,0.0
-0.61,-0.45,9.69,-0.1,0.0,-0.01,9.72,0.1,-0.58,-0.45,9.71,-0.11,0.0,-0.01,-2.67,-3.59,39790.0,0.0
-0.56,-0.41,9.67,-0.1,0.01,-0.01,9.7,0.1,-0.59,-0.45,9.71,-0.11,0.0,-0.01,-2.42,-3.33,39994.0,0.0
-0.54,-0.41,9.76,-0.1,0.0,-0.01,9.78,0.1,-0.58,-0.44,9.7,-0.1,0.0,-0.01,-2.42,-3.17,40198.0,0.0
-0.69,-0.47,9.67,-0.11,0.01,-0.01,9.71,0.11,-0.57,-0.44,9.71,-0.1,0.0,-0.01,-2.78,-4.06,40402.0,0.0
-0.57,-0.46,9.68,-0.1,0.0,-0.01,9.71,0.11,-0.6,-0.44,9.71,-0.1,0.0,-0.01,-2.75,-3.4,40606.0,0.0
-0.61,-0.4,9.71,-0.11,0.01,-0.01,9.73,0.11,-0.59,-0.45,9.7,-0.1,0.0,-0.01,-2.39,-3.57,40810.0,0.0
-0.6,-0.42,9.65,-0.1,0.0,-0.01,9.67,0.1,-0.59,-0.44,9.7,-0.1,0.01,-0.01,-2.47,-3.58,41014.0,0.0
-0.56,-0.44,9.74,-0.1,0.01,-0.01,9.77,0.1,-0.6,-0.43,9.69,-0.1,0.0,-0.01,-2.58,-3.29,41218.0,0.0
-0.56,-0.43,9.63,-0.11,0.0,-0.01,9.66,0.11,-0.59,-0.43,9.7,-0.1,0.0,-0.01,-2.55,-3.34,41422.0,0.0
-0.57,-0.43,9.7,-0.1,0.01,-0.01,9.72,0.11,-0.58,-0.43,9.69,-0.1,0.0,-0.01,-2.52,-3.39,41626.0,0.0
-0.55,-0.48,9.72,-0.1,0.0,-0.01,9.75,0.1,-0.58,-0.43,9.69,-0.1,0.0,-0.01,-2.82,-3.26,41830.0,0.0
-0.68,-0.37,9.78,-0.11,0.0,-0.01,9.81,0.11,-0.58,-0.44,9.69,-0.1,0.0,-0.01,-2.17,-3.96,42034.0,0.0
-0.56,-0.44,9.68,-0.1,0.0,-0.01,9.7,0.1,-0.6,-0.43,9.71,-0.1,0.0,-0.01,-2.59,-3.31,42238.0,0.0
-0.6,-0.42,9.73,-0.1,0.0,-0.01,9.75,0.1,-0.59,-0.43,9.7,-0.1,0.0,-0.01,-2.45,-3.55,42442.0,0.0
-0.56,-0.43,9.79,-0.1,0.0,-0.01,9.81,0.1,-0.59,-0.43,9.71,-0.1,0.0,-0.01,-2.51,-3.28,42646.0,0.0
-0.65,-0.41,9.72,-0.1,0.0,-0.01,9.75,0.1,-0.59,-0.43,9.72,-0.1,0.0,-0.01,-2.41,-3.82,42850.0,0.0
-0.59,-0.42,9.73,-0.1,0.0,-0.01,9.76,0.1,-0.6,-0.42,9.72,-0.1,0.0,-0.01,-2.45,-3.48,43054.0,0.0
-0.57,-0.43,9.61,-0.11,0.0,-0.01,9.64,0.11,-0.6,-0.42,9.72,-0.1,0.0,-0.01,-2.55,-3.42,43258.0,0.0
-0.57,-0.43,9.73,-0.1,0.0,-0.01,9.76,0.1,-0.59,-0.42,9.7,-0.1,0.0,-0.01,-2.55,-3.34,43462.0,0.0
-0.58,-0.48,9.77,-0.1,0.01,-0.01,9.8,0.1,-0.59,-0.43,9.71,-0.1,0.0,-0.01,-2.83,-3.42,43666.0,0.0
-0.57,-0.5,9.67,-0.1,0.0,-0.01,9.7,0.1,-0.59,-0.44,9.72,-0.1,0.0,-0.01,-2.95,-3.39,43870.0,0.0
-0.61,-0.34,9.6,-0.11,0.01,-0.01,9.62,0.11,-0.58,-0.45,9.71,-0.1,0.0,-0.01,-2.0,-3.63,44074.0,0.0
-0.58,-0.46,9.79,-0.11,0.0,-0.01,9.82,0.11,-0.59,-0.43,9.69,-0.1,0.0,-0.01,-2.7,-3.39,44278.0,0.0
-0.57,-0.4,9.66,-0.1,0.0,-0.01,9.68,0.1,-0.59,-0.43,9.71,-0.1,0.0,-0.01,-2.37,-3.39,44482.0,0.0
-0.62,-0.46,9.69,-0.1,0.0,-0.01,9.72,0.11,-0.58,-0.43,9.7,-0.1,0.0,-0.01,-2.7,-3.69,44686.0,0.0
-0.61,-0.45,9.65,-0.11,0.0,-0.01,9.68,0.11,-0.59,-0.43,9.7,-0.1,0.0,-0.01,-2.67,-3.61,44890.0,0.0
-0.6,-0.47,9.76,-0.1,0.0,-0.01,9.79,0.1,-0.6,-0.44,9.69,-0.1,0.0,-0.01,-2.78,-3.51,45094.0,0.0
-0.55,-0.44,9.71,-0.1,0.0,-0.01,9.73,0.1,-0.6,-0.44,9.7,-0.1,0.0,-0.01,-2.61,-3.25,45298.0,0.0
-0.6,-0.41,9.71,-0.11,0.0,-0.01,9.74,0.11,-0.59,-0.44,9.7,-0.1,0.0,-0.01,-2.41,-3.56,45502.0,0.0
-0.61,-0.46,9.66,-0.1,0.01,-0.01,9.69,0.1,-0.59,-0.44,9.7,-0.11,0.0,-0.01,-2.71,-3.63,45706.0,0.0
-0.6,-0.38,9.67,-0.1,0.0,-0.01,9.69,0.1,-0.59,-0.44,9.7,-0.1,0.0,-0.01,-2.24,-3.54,45910.0,0.0
-0.59,-0.43,9.68,-0.1,0.0,-0.01,9.71,0.1,-0.6,-0.43,9.69,-0.1,0.0,-0.01,-2.55,-3.48,46114.0,0.0
-0.65,-0.44,9.69,-0.11,0.01,-0.01,9.72,0.11,-0.59,-0.43,9.69,-0.1,0.0,-0.01,-2.57,-3.86,46318.0,0.0
-0.57,-0.45,9.73,-0.11,0.0,-0.01,9.76,0.11,-0.61,-0.43,9.69,-0.1,0.0,-0.01,-2.62,-3.38,46522.0,0.0
-0.57,-0.41,9.62,-0.1,0.01,-0.01,9.64,0.1,-0.6,-0.43,9.7,-0.11,0.0,-0.01,-2.42,-3.42,46726.0,0.0
-0.56,-0.47,9.65,-0.1,0.01,-0.01,9.68,0.1,-0.59,-0.43,9.68,-0.11,0.01,-0.01,-2.78,-3.29,46930.0,0.0
-0.55,-0.43,9.71,-0.1,0.01,-0.01,9.73,0.1,-0.59,-0.44,9.67,-0.1,0.01,-0.01,-2.56,-3.26,47134.0,0.0
-0.61,-0.51,9.74,-0.1,0.01,-0.01,9.78,0.1,-0.58,-0.44,9.68,-0.1,0.01,-0.01,-2.98,-3.56,47338.0,0.0
-0.54,-0.43,9.68,-0.1,0.0,-0.01,9.7,0.1,-0.59,-0.45,9.69,-0.1,0.01,-0.01,-2.56,-3.2,47542.0,0.0
-0.62,-0.46,9.64,-0.1,0.0,-0.01,9.67,0.1,-0.58,-0.45,9.69,-0.1,0.01,-0.01,-2.75,-3.65,47746.0,0.0
-0.64,-0.43,9.7,-0.1,0.01,-0.01,9.73,0.11,-0.58,-0.45,9.68,-0.1,0.0,-0.01,-2.54,-3.77,47950.0,0.0
-0.64,-0.48,9.64,-0.1,0.0,-0.01,9.67,0.1,-0.6,-0.45,9.68,-0.1,0.01,-0.01,-2.87,-3.81,48154.0,0.0
-0.56,-0.45,9.64,-0.1,0.01,-0.01,9.67,0.1,-0.6,-0.45,9.68,-0.1,0.0,-0.01,-2.64,-3.32,48358.0,0.0
-0.57,-0.46,9.75,-0.11,0.0,-0.01,9.78,0.11,-0.6,-0.45,9.67,-0.1,0.0,-0.01,-2.71,-3.34,48562.0,0.0
-0.6,-0.46,9.69,-0.11,0.0,-0.01,9.72,0.11,-0.59,-0.45,9.69,-0.1,0.0,-0.01,-2.75,-3.56,48766.0,0.0
-0.58,-0.43,9.68,-0.1,0.0,-0.01,9.7,0.1,-0.59,-0.46,9.69,-0.1,0.0,-0.01,-2.55,-3.45,48970.0,0.0
-0.59,-0.45,9.73,-0.11,0.01,-0.01,9.76,0.11,-0.59,-0.45,9.68,-0.1,0.0,-0.01,-2.65,-3.46,49174.0,0.0
-0.59,-0.4,9.76,-0.1,0.0,-0.01,9.78,0.11,-0.59,-0.45,9.69,-0.1,0.0,-0.01,-2.36,-3.44,49378.0,0.0
-0.59,-0.4,9.64,-0.11,0.01,-0.01,9.66,0.11,-0.59,-0.44,9.71,-0.1,0.0,-0.01,-2.38,-3.53,49582.0,0.0
-0.65,-0.43,9.66,-0.11,0.0,-0.01,9.69,0.11,-0.59,-0.43,9.69,-0.1,0.0,-0.01,-2.57,-3.84,49786.0,0.0
-0.63,-0.46,9.7,-0.11,0.01,-0.01,9.73,0.11,-0.6,-0.43,9.69,-0.11,0.0,-0.01,-2.73,-3.7,49990.0,0.0
-0.54,-0.45,9.73,-0.1,0.0,-0.01,9.76,0.1,-0.61,-0.44,9.69,-0.11,0.01,-0.01,-2.65,-3.17,50194.0,0.0
-0.55,-0.47,9.63,-0.11,0.0,-0.01,9.66,0.11,-0.59,-0.44,9.7,-0.11,0.01,-0.01,-2.79,-3.29,50398.0,0.0
-0.59,-0.47,9.74,-0.1,0.0,-0.01,9.77,0.1,-0.59,-0.45,9.68,-0.11,0.01,-0.01,-2.76,-3.47,50602.0,0.0
-0.6,-0.44,9.63,-0.1,0.01,-0.01,9.66,0.1,-0.59,-0.45,9.7,-0.1,0.0,-0.01,-2.62,-3.59,50806.0,0.0
-0.54,-0.49,9.7,-0.1,0.0,-0.01,9.72,0.11,-0.59,-0.45,9.68,-0.1,0.0,-0.01,-2.9,-3.17,51010.0,0.0
-0.55,-0.4,9.7,-0.11,0.0,-0.01,9.72,0.11,-0.58,-0.46,9.68,-0.1,0.0,-0.01,-2.35,-3.22,51214.0,0.0
-0.6,-0.45,9.76,-0.1,0.0,-0.01,9.79,0.11,-0.57,-0.45,9.69,-0.1,0.0,-0.01,-2.67,-3.51,51418.0,0.0
-0.64,-0.38,9.64,-0.1,0.0,-0.01,9.67,0.1,-0.58,-0.45,9.7,-0.1,0.0,-0.01,-2.25,-3.82,51622.0,0.0
-0.51,-0.44,9.75,-0.11,0.0,-0.01,9.78,0.11,-0.59,-0.43,9.69,-0.1,0.0,-0.01,-2.56,-3.02,51826.0,0.0
-0.52,-0.4,9.77,-0.11,0.01,-0.01,9.79,0.11,-0.58,-0.43,9.7,-0.1,0.0,-0.01,-2.33,-3.03,52030.0,0.0
-0.61,-0.48,9.74,-0.11,0.0,-0.01,9.77,0.11,-0.56,-0.43,9.72,-0.11,0.01,-0.01,-2.83,-3.6,52234.0,0.0
-0.61,-0.48,9.68,-0.11,0.0,-0.01,9.72,0.11,-0.57,-0.44,9.72,-0.11,0.0,-0.01,-2.83,-3.62,52438.0,0.0
-0.6,-0.45,9.82,-0.11,0.0,-0.01,9.85,0.11,-0.58,-0.45,9.71,-0.11,0.0,-0.01,-2.64,-3.52,52642.0,0.0
-0.52,-0.37,9.71,-0.11,0.0,-0.01,9.73,0.11,-0.59,-0.45,9.74,-0.11,0.0,-0.01,-2.2,-3.06,52846.0,0.0
-0.57,-0.43,9.7,-0.1,0.01,-0.01,9.72,0.1,-0.57,-0.43,9.73,-0.11,0.0,-0.01,-2.54,-3.38,53050.0,0.0
-0.6,-0.44,9.62,-0.1,0.0,-0.01,9.65,0.1,-0.57,-0.43,9.72,-0.11,0.0,-0.01,-2.62,-3.57,53254.0,0.0
-0.57,-0.45,9.71,-0.1,0.01,-0.01,9.74,0.1,-0.58,-0.43,9.7,-0.1,0.0,-0.01,-2.64,-3.34,53458.0,0.0
-0.58,-0.43,9.73,-0.1,0.0,-0.01,9.76,0.1,-0.58,-0.44,9.7,-0.1,0.0,-0.01,-2.55,-3.42,53662.0,0.0
-0.59,-0.4,9.75,-0.11,0.0,-0.01,9.78,0.11,-0.58,-0.44,9.71,-0.1,0.0,-0.01,-2.38,-3.44,53866.0,0.0
-0.6,-0.41,9.67,-0.11,0.0,-0.01,9.7,0.11,-0.58,-0.43,9.72,-0.11,0.0,-0.01,-2.41,-3.57,54070.0,0.0
-0.58,-0.43,9.65,-0.1,0.0,-0.01,9.68,0.1,-0.58,-0.43,9.71,-0.11,0.0,-0.01,-2.53,-3.43,54274.0,0.0
-0.55,-0.46,9.62,-0.1,0.0,-0.01,9.65,0.1,-0.58,-0.43,9.7,-0.11,0.0,-0.01,-2.76,-3.25,54478.0,0.0
-0.61,-0.46,9.67,-0.1,0.01,-0.01,9.7,0.11,-0.58,-0.43,9.68,-0.1,0.0,-0.01,-2.71,-3.58,54682.0,0.0
-0.63,-0.53,9.69,-0.11,0.0,-0.01,9.73,0.11,-0.58,-0.44,9.68,-0.1,0.0,-0.01,-3.15,-3.74,54886.0,0.0
-0.61,-0.4,9.67,-0.1,0.01,-0.01,9.7,0.11,-0.59,-0.46,9.68,-0.11,0.0,-0.01,-2.34,-3.63,55090.0,0.0
-0.61,-0.51,9.75,-0.1,0.0,-0.01,9.78,0.1,-0.6,-0.44,9.68,-0.11,0.01,-0.01,-3.01,-3.57,55294.0,0.0
-0.6,-0.39,9.73,-0.1,0.0,-0.01,9.76,0.1,-0.6,-0.46,9.69,-0.1,0.0,-0.01,-2.28,-3.52,55498.0,0.0
-0.55,-0.48,9.71,-0.11,0.0,-0.01,9.73,0.11,-0.6,-0.44,9.7,-0.1,0.0,-0.01,-2.85,-3.25,55702.0,0.0
-0.63,-0.47,9.73,-0.1,0.0,-0.01,9.76,0.11,-0.59,-0.45,9.7,-0.11,0.0,-0.01,-2.78,-3.73,55906.0,0.0
-0.58,-0.44,9.68,-0.1,0.01,-0.01,9.71,0.11,-0.6,-0.46,9.71,-0.11,0.0,-0.01,-2.62,-3.45,56110.0,0.0
-0.54,-0.39,9.72,-0.1,0.0,-0.01,9.74,0.1,-0.6,-0.45,9.7,-0.11,0.0,-0.01,-2.27,-3.2,56314.0,0.0
-0.66,-0.42,9.7,-0.11,0.0,-0.01,9.73,0.11,-0.58,-0.44,9.71,-0.1,0.0,-0.01,-2.47,-3.91,56518.0,0.0
-0.66,-0.33,9.77,-0.11,0.0,-0.01,9.8,0.11,-0.6,-0.44,9.7,-0.11,0.0,-0.01,-1.95,-3.84,56722.0,0.0
-0.58,-0.5,9.72,-0.1,0.0,-0.01,9.75,0.1,-0.61,-0.42,9.72,-0.11,0.0,-0.01,-2.96,-3.41,56926.0,0.0
-0.56,-0.42,9.68,-0.1,0.01,-0.01,9.71,0.1,-0.61,-0.43,9.72,-0.11,0.0,-0.01,-2.48,-3.31,57130.0,0.0
-0.58,-0.45,9.72,-0.11,0.0,-0.01,9.75,0.11,-0.6,-0.43,9.71,-0.1,0.0,-0.01,-2.62,-3.43,57334.0,0.0
-0.63,-0.41,9.73,-0.11,0.01,-0.01,9.76,0.11,-0.59,-0.43,9.71,-0.11,0.0,-0.01,-2.41,-3.73,57538.0,0.0
-0.58,-0.47,9.69,-0.1,0.01,-0.01,9.72,0.11,-0.6,-0.43,9.72,-0.11,0.0,-0.01,-2.8,-3.42,57742.0,0.0
-0.58,-0.4,9.76,-0.11,0.01,-0.01,9.78,0.11,-0.6,-0.44,9.71,-0.11,0.0,-0.01,-2.32,-3.43,57946.0,0.0
-0.49,-0.41,9.7,-0.1,0.0,-0.01,9.72,0.1,-0.59,-0.43,9.72,-0.11,0.0,-0.01,-2.42,-2.87,58150.0,0.0
-0.59,-0.38,9.67,-0.11,0.01,-0.01,9.7,0.11,-0.57,-0.43,9.72,-0.11,0.0,-0.01,-2.24,-3.49,58354.0,0.0
-0.6,-0.5,9.63,-0.1,0.0,-0.01,9.67,0.1,-0.58,-0.42,9.71,-0.11,0.01,-0.01,-2.94,-3.56,58558.0,0.0
-0.63,-0.41,9.75,-0.11,0.0,-0.01,9.78,0.11,-0.58,-0.43,9.69,-0.1,0.0,-0.01,-2.43,-3.68,58762.0,0.0
-0.58,-0.45,9.69,-0.1,0.0,-0.01,9.71,0.1,-0.59,-0.43,9.7,-0.1,0.0,-0.01,-2.65,-3.42,58966.0,0.0
-0.6,-0.38,9.66,-0.11,0.01,-0.01,9.68,0.11,-0.59,-0.43,9.7,-0.1,0.0,-0.01,-2.26,-3.55,59170.0,0.0
-0.58,-0.45,9.75,-0.1,0.0,-0.01,9.77,0.11,-0.59,-0.42,9.69,-0.11,0.0,-0.01,-2.62,-3.4,59374.0,0.0
-0.62,-0.41,9.64,-0.11,0.01,-0.01,9.67,0.11,-0.59,-0.43,9.7,-0.11,0.0,-0.01,-2.45,-3.71,59578.0,0.0
-0.59,-0.42,9.71,-0.1,0.0,-0.01,9.74,0.1,-0.6,-0.42,9.69,-0.11,0.0,-0.01,-2.47,-3.47,59782.0,0.0
-0.58,-0.37,9.72,-0.1,0.01,-0.01,9.74,0.1,-0.59,-0.42,9.7,-0.1,0.0,-0.01,-2.19,-3.41,59986.0,0.0
-0.61,-0.5,9.7,-0.1,0.0,-0.01,9.73,0.11,-0.59,-0.41,9.7,-0.1,0.0,-0.01,-2.94,-3.57,60190.0,0.0
-0.61,-0.39,9.79,-0.1,0.01,-0.01,9.82,0.11,-0.59,-0.43,9.7,-0.1,0.0,-0.01,-2.3,-3.58,60394.0,0.0
-0.53,-0.46,9.72,-0.1,0.0,-0.01,9.75,0.11,-0.6,-0.42,9.72,-0.1,0.0,-0.01,-2.71,-3.12,60598.0,0.0
-0.55,-0.4,9.74,-0.1,0.01,-0.01,9.77,0.1,-0.58,-0.43,9.72,-0.1,0.0,-0.01,-2.36,-3.23,60802.0,0.0
-0.63,-0.47,9.75,-0.1,0.0,-0.01,9.79,0.1,-0.58,-0.42,9.72,-0.1,0.0,-0.01,-2.75,-3.69,61006.0,0.0
-0.62,-0.39,9.7,-0.1,0.01,-0.01,9.73,0.1,-0.59,-0.43,9.73,-0.1,0.0,-0.01,-2.32,-3.67,61210.0,0.0
-0.57,-0.45,9.69,-0.11,0.0,-0.01,9.72,0.11,-0.59,-0.43,9.72,-0.1,0.0,-0.01,-2.69,-3.38,61414.0,0.0
-0.56,-0.42,9.65,-0.1,0.01,-0.01,9.67,0.1,-0.59,-0.43,9.72,-0.1,0.0,-0.01,-2.49,-3.3,61618.0,0.0
-0.56,-0.45,9.7,-0.1,0.0,-0.01,9.72,0.1,-0.58,-0.43,9.7,-0.1,0.0,-0.01,-2.67,-3.32,61822.0,0.0
-0.59,-0.35,9.68,-0.11,0.01,-0.01,9.71,0.11,-0.58,-0.43,9.7,-0.1,0.0,-0.01,-2.05,-3.47,62026.0,0.0
-0.62,-0.43,9.71,-0.1,0.0,-0.01,9.74,0.1,-0.58,-0.42,9.7,-0.1,0.0,-0.01,-2.56,-3.67,62230.0,0.0
-0.61,-0.44,9.66,-0.11,0.01,-0.01,9.69,0.11,-0.59,-0.42,9.7,-0.1,0.0,-0.01,-2.61,-3.62,62434.0,0.0
-0.51,-0.47,9.65,-0.1,0.01,-0.01,9.68,0.11,-0.59,-0.42,9.69,-0.1,0.0,-0.01,-2.78,-3.05,62638.0,0.0
-0.62,-0.49,9.71,-0.11,0.01,-0.01,9.74,0.11,-0.58,-0.43,9.68,-0.1,0.0,-0.01,-2.88,-3.63,62842.0,0.0
-0.57,-0.48,9.73,-0.11,0.0,-0.01,9.76,0.11,-0.59,-0.44,9.69,-0.1,0.0,-0.01,-2.83,-3.34,63046.0,0.0
-0.54,-0.44,9.66,-0.11,0.0,-0.01,9.68,0.11,-0.58,-0.45,9.7,-0.11,0.0,-0.01,-2.58,-3.21,63250.0,0.0
-0.53,-0.44,9.65,-0.11,0.0,-0.01,9.67,0.11,-0.57,-0.45,9.69,-0.11,0.0,-0.01,-2.63,-3.12,63454.0,0.0
-0.57,-0.41,9.72,-0.11,0.01,-0.01,9.75,0.11,-0.56,-0.45,9.68,-0.11,0.0,-0.01,-2.43,-3.38,63658.0,0.0
-0.6,-0.48,9.76,-0.1,0.0,-0.01,9.79,0.11,-0.57,-0.44,9.69,-0.11,0.0,-0.01,-2.82,-3.54,63862.0,0.0
-0.61,-0.37,9.78,-0.11,0.01,-0.01,9.8,0.11,-0.57,-0.45,9.7,-0.11,0.0,-0.01,-2.16,-3.54,64066.0,0.0
-0.57,-0.41,9.73,-0.1,0.0,-0.01,9.76,0.1,-0.58,-0.43,9.72,-0.11,0.0,-0.01,-2.42,-3.37,64270.0,0.0
-0.61,-0.48,9.59,-0.11,0.0,-0.01,9.62,0.11,-0.58,-0.43,9.72,-0.11,0.0,-0.01,-2.87,-3.66,64474.0,0.0
-0.57,-0.44,9.61,-0.1,0.0,-0.01,9.64,0.1,-0.59,-0.44,9.69,-0.11,0.0,-0.01,-2.6,-3.42,64678.0,0.0
-0.62,-0.4,9.73,-0.11,0.01,-0.01,9.76,0.11,-0.58,-0.44,9.68,-0.1,0.0,-0.01,-2.35,-3.62,64882.0,0.0
-0.5,-0.47,9.74,-0.11,0.0,-0.01,9.76,0.11,-0.59,-0.43,9.69,-0.11,0.0,-0.01,-2.79,-2.96,65086.0,0.0
-0.51,-0.39,9.69,-0.1,0.0,-0.01,9.72,0.11,-0.57,-0.44,9.7,-0.11,0.0,-0.01,-2.28,-3.04,65290.0,0.0
-0.6,-0.46,9.68,-0.1,0.01,-0.01,9.71,0.1,-0.56,-0.43,9.7,-0.11,0.0,-0.01,-2.7,-3.52,65494.0,0.0
-0.6,-0.49,9.63,-0.11,0.01,-0.01,9.67,0.11,-0.57,-0.43,9.69,-0.1,0.0,-0.01,-2.93,-3.56,65698.0,0.0
-0.54,-0.49,9.72,-0.1,0.0,-0.01,9.75,0.11,-0.57,-0.45,9.68,-0.11,0.0,-0.01,-2.89,-3.19,65902.0,0.0
-0.49,-0.42,9.71,-0.1,0.0,-0.01,9.73,0.11,-0.57,-0.46,9.69,-0.11,0.0,-0.01,-2.5,-2.88,66106.0,0.0
-0.64,-0.42,9.75,-0.1,0.01,-0.01,9.78,0.1,-0.55,-0.45,9.69,-0.11,0.0,-0.01,-2.47,-3.74,66310.0,0.0
-0.62,-0.42,9.63,-0.11,0.0,-0.01,9.66,0.11,-0.57,-0.44,9.71,-0.1,0.0,-0.01,-2.52,-3.68,66514.0,0.0
-0.56,-0.5,9.77,-0.11,0.0,-0.01,9.8,0.11,-0.58,-0.44,9.69,-0.1,0.0,-0.01,-2.9,-3.28,66718.0,0.0
-0.61,-0.42,9.71,-0.1,0.0,-0.01,9.74,0.1,-0.58,-0.45,9.71,-0.11,0.0,-0.01,-2.46,-3.58,66922.0,0.0
-0.57,-0.4,9.73,-0.11,0.01,-0.01,9.75,0.11,-0.58,-0.44,9.71,-0.11,0.0,-0.01,-2.34,-3.35,67126.0,0.0
-0.6,-0.45,9.6,-0.11,0.01,-0.01,9.63,0.11,-0.58,-0.43,9.71,-0.11,0.0,-0.01,-2.71,-3.57,67330.0,0.0
-0.57,-0.38,9.72,-0.1,0.01,-0.01,9.75,0.1,-0.58,-0.44,9.69,-0.11,0.0,-0.01,-2.24,-3.35,67534.0,0.0
-0.52,-0.51,9.68,-0.1,0.0,-0.01,9.71,0.1,-0.58,-0.43,9.7,-0.11,0.01,-0.01,-3.0,-3.1,67738.0,0.0
-0.55,-0.45,9.78,-0.11,0.01,-0.01,9.81,0.11,-0.57,-0.44,9.69,-0.1,0.0,-0.01,-2.65,-3.24,67942.0,0.0
-0.57,-0.46,9.5,-0.1,0.0,-0.01,9.53,0.1,-0.57,-0.45,9.71,-0.11,0.0,-0.01,-2.8,-3.42,68146.0,0.0
-0.64,-0.45,9.8,-0.11,0.0,-0.01,9.83,0.11,-0.57,-0.45,9.67,-0.1,0.0,-0.01,-2.63,-3.76,68350.0,0.0
-0.56,-0.44,9.6,-0.1,0.0,-0.01,9.62,0.11,-0.58,-0.45,9.7,-0.11,0.0,-0.01,-2.6,-3.33,68554.0,0.0
-0.55,-0.44,9.64,-0.11,0.01,-0.01,9.67,0.11,-0.58,-0.45,9.68,-0.11,0.0,-0.01,-2.63,-3.27,68758.0,0.0
-0.59,-0.51,9.74,-0.11,0.01,-0.01,9.77,0.11,-0.57,-0.45,9.67,-0.11,0.0,-0.01,-3.03,-3.45,68962.0,0.0
-0.67,-0.39,9.69,-0.1,0.01,-0.01,9.72,0.11,-0.57,-0.46,9.68,-0.11,0.0,-0.01,-2.32,-3.94,69166.0,0.0
-0.56,-0.45,9.73,-0.1,0.0,-0.01,9.76,0.1,-0.59,-0.45,9.69,-0.11,0.01,-0.01,-2.65,-3.31,69370.0,0.0
-0.57,-0.44,9.68,-0.1,0.01,-0.01,9.7,0.1,-0.59,-0.45,9.69,-0.1,0.0,-0.01,-2.59,-3.38,69574.0,0.0
-0.54,-0.49,9.76,-0.11,0.0,-0.01,9.79,0.11,-0.58,-0.45,9.69,-0.1,0.0,-0.01,-2.88,-3.16,69778.0,0.0
-0.62,-0.41,9.69,-0.11,0.01,-0.01,9.72,0.11,-0.58,-0.45,9.71,-0.1,0.0,-0.01,-2.43,-3.68,69982.0,0.0
-0.55,-0.39,9.76,-0.1,0.0,-0.01,9.78,0.1,-0.58,-0.45,9.7,-0.1,0.01,-0.01,-2.29,-3.23,70186.0,0.0
-0.61,-0.45,9.77,-0.11,0.0,-0.01,9.8,0.11,-0.58,-0.43,9.71,-0.1,0.0,-0.01,-2.61,-3.55,70390.0,0.0
-0.57,-0.44,9.74,-0.1,0.01,-0.01,9.77,0.1,-0.58,-0.44,9.72,-0.1,0.0,-0.01,-2.56,-3.35,70594.0,0.0
-0.64,-0.39,9.72,-0.1,0.01,-0.01,9.74,0.1,-0.58,-0.44,9.73,-0.1,0.0,-0.01,-2.3,-3.78,70798.0,0.0
-0.52,-0.45,9.67,-0.11,0.0,-0.01,9.69,0.11,-0.59,-0.43,9.73,-0.1,0.0,-0.01,-2.68,-3.08,71002.0,0.0
-0.55,-0.4,9.61,-0.1,0.01,-0.01,9.63,0.1,-0.58,-0.43,9.71,-0.1,0.0,-0.01,-2.35,-3.25,71206.0,0.0
-0.54,-0.38,9.73,-0.11,0.0,-0.01,9.76,0.11,-0.57,-0.42,9.69,-0.1,0.0,-0.01,-2.25,-3.18,71410.0,0.0
-0.62,-0.43,9.66,-0.11,0.0,-0.01,9.69,0.11,-0.57,-0.42,9.7,-0.1,0.0,-0.01,-2.53,-3.66,71614.0,0.0
-0.59,-0.44,9.72,-0.1,0.0,-0.01,9.74,0.1,-0.58,-0.42,9.69,-0.1,0.0,-0.01,-2.6,-3.47,71818.0,0.0
-0.55,-0.39,9.65,-0.1,0.01,-0.01,9.68,0.11,-0.58,-0.42,9.7,-0.1,0.0,-0.01,-2.33,-3.26,72022.0,0.0
-0.56,-0.43,9.75,-0.1,0.0,-0.01,9.77,0.1,-0.57,-0.42,9.69,-0.1,0.0,-0.01,-2.55,-3.29,72226.0,0.0
-0.61,-0.36,9.67,-0.1,0.0,-0.01,9.7,0.1,-0.57,-0.42,9.7,-0.1,0.0,-0.01,-2.14,-3.62,72430.0,0.0
-0.57,-0.42,9.71,-0.1,0.0,-0.01,9.74,0.1,-0.58,-0.41,9.7,-0.1,0.0,-0.01,-2.46,-3.36,72634.0,0.0
-0.59,-0.33,9.82,-0.11,0.01,-0.01,9.84,0.11,-0.58,-0.41,9.7,-0.1,0.0,-0.01,-1.93,-3.45,72838.0,0.0
-0.57,-0.43,9.6,-0.1,0.0,-0.01,9.62,0.1,-0.58,-0.39,9.72,-0.1,0.01,-0.01,-2.57,-3.4,73042.0,0.0
-0.58,-0.44,9.73,-0.1,0.01,-0.01,9.75,0.11,-0.58,-0.4,9.7,-0.1,0.01,-0.01,-2.58,-3.41,73246.0,0.0
-0.55,-0.41,9.73,-0.11,0.0,-0.01,9.76,0.11,-0.58,-0.41,9.7,-0.1,0.01,-0.01,-2.42,-3.25,73450.0,0.0
-0.57,-0.44,9.75,-0.1,0.0,-0.01,9.77,0.1,-0.57,-0.41,9.71,-0.1,0.0,-0.01,-2.6,-3.36,73654.0,0.0
-0.53,-0.49,9.77,-0.1,0.0,-0.01,9.8,0.1,-0.57,-0.42,9.72,-0.1,0.0,-0.01,-2.88,-3.11,73858.0,0.0
-0.6,-0.45,9.69,-0.1,0.01,-0.01,9.72,0.1,-0.56,-0.43,9.73,-0.1,0.0,-0.01,-2.63,-3.56,74062.0,0.0
-0.65,-0.45,9.74,-0.11,0.0,-0.01,9.77,0.11,-0.57,-0.43,9.72,-0.1,0.0,-0.01,-2.65,-3.84,74266.0,0.0
-0.67,-0.41,9.69,-0.1,0.0,-0.01,9.73,0.11,-0.59,-0.44,9.72,-0.1,0.0,-0.01,-2.4,-3.96,74470.0,0.0
-0.53,-0.5,9.68,-0.1,0.0,-0.01,9.7,0.11,-0.61,-0.43,9.72,-0.1,0.0,-0.01,-2.96,-3.14,74674.0,0.0
-0.61,-0.41,9.63,-0.1,0.01,-0.01,9.66,0.11,-0.59,-0.44,9.71,-0.1,0.0,-0.01,-2.46,-3.63,74878.0,0.0
-0.59,-0.48,9.75,-0.1,0.0,-0.01,9.78,0.1,-0.59,-0.44,9.69,-0.1,0.0,-0.01,-2.84,-3.46,75082.0,0.0
-0.57,-0.44,9.64,-0.11,0.01,-0.01,9.67,0.11,-0.59,-0.45,9.71,-0.1,0.0,-0.01,-2.59,-3.37,75286.0,0.0
-0.54,-0.4,9.69,-0.11,0.0,-0.01,9.71,0.11,-0.59,-0.45,9.69,-0.1,0.0,-0.01,-2.39,-3.2,75490.0,0.0
-0.6,-0.35,9.61,-0.11,0.01,-0.01,9.63,0.11,-0.58,-0.44,9.69,-0.1,0.0,-0.01,-2.1,-3.55,75694.0,0.0
-0.51,-0.5,9.76,-0.1,0.0,-0.01,9.78,0.11,-0.58,-0.42,9.68,-0.11,0.0,-0.01,-2.94,-2.98,75898.0,0.0
-0.62,-0.44,9.7,-0.11,0.01,-0.01,9.73,0.11,-0.57,-0.44,9.69,-0.1,0.0,-0.01,-2.57,-3.66,76102.0,0.0
-0.55,-0.44,9.75,-0.1,0.0,-0.01,9.78,0.1,-0.58,-0.44,9.69,-0.11,0.0,-0.01,-2.6,-3.25,76306.0,0.0
-0.53,-0.43,9.57,-0.1,0.0,-0.01,9.6,0.1,-0.57,-0.44,9.71,-0.1,0.0,-0.01,-2.56,-3.19,76510.0,0.0
-0.55,-0.41,9.79,-0.1,0.01,-0.02,9.81,0.1,-0.57,-0.44,9.68,-0.1,0.0,-0.01,-2.39,-3.19,76714.0,0.0
-0.57,-0.4,9.72,-0.1,0.01,-0.01,9.75,0.1,-0.56,-0.43,9.7,-0.1,0.0,-0.01,-2.36,-3.37,76918.0,0.0
-0.59,-0.43,9.68,-0.11,0.0,-0.01,9.71,0.11,-0.56,-0.42,9.71,-0.1,0.01,-0.01,-2.52,-3.47,77122.0,0.0
-0.51,-0.41,9.68,-0.11,0.01,-0.01,9.7,0.11,-0.57,-0.42,9.7,-0.11,0.01,-0.01,-2.41,-3.0,77326.0,0.0
-0.54,-0.44,9.73,-0.11,0.0,-0.01,9.75,0.11,-0.56,-0.42,9.7,-0.11,0.01,-0.01,-2.59,-3.17,77530.0,0.0
-0.61,-0.48,9.76,-0.1,0.01,-0.01,9.79,0.1,-0.55,-0.43,9.7,-0.11,0.0,-0.01,-2.84,-3.55,77734.0,0.0
-0.57,-0.42,9.67,-0.11,0.01,-0.01,9.69,0.11,-0.56,-0.44,9.72,-0.1,0.0,-0.01,-2.5,-3.4,77938.0,0.0
-0.56,-0.44,9.66,-0.11,0.01,-0.01,9.69,0.11,-0.57,-0.43,9.71,-0.11,0.01,-0.01,-2.6,-3.33,78142.0,0.0
-0.53,-0.44,9.73,-0.1,0.0,-0.01,9.75,0.1,-0.56,-0.43,9.7,-0.11,0.01,-0.01,-2.58,-3.11,78346.0,0.0
-0.55,-0.46,9.72,-0.11,0.01,0.0,9.74,0.11,-0.56,-0.44,9.7,-0.11,0.0,-0.01,-2.69,-3.22,78550.0,0.0
-0.56,-0.44,9.77,-0.1,0.0,-0.01,9.8,0.1,-0.56,-0.44,9.71,-0.11,0.0,-0.01,-2.58,-3.28,78754.0,0.0
-0.61,-0.4,9.64,-0.1,0.0,-0.01,9.67,0.1,-0.56,-0.44,9.72,-0.11,0.0,-0.01,-2.38,-3.6,78958.0,0.0
-0.55,-0.44,9.68,-0.11,0.0,-0.01,9.71,0.11,-0.57,-0.43,9.7,-0.1,0.0,-0.01,-2.61,-3.26,79162.0,0.0
-0.63,-0.48,9.82,-0.1,0.0,-0.01,9.85,0.1,-0.56,-0.43,9.7,-0.11,0.0,-0.01,-2.78,-3.7,79366.0,0.0
-0.61,-0.44,9.74,-0.1,0.01,-0.01,9.77,0.1,-0.58,-0.44,9.72,-0.1,0.0,-0.01,-2.56,-3.57,79570.0,0.0
-0.57,-0.43,9.66,-0.1,0.0,-0.01,9.68,0.1,-0.58,-0.44,9.73,-0.1,0.0,-0.01,-2.57,-3.38,79774.0,0.0
-0.55,-0.42,9.73,-0.11,0.0,-0.01,9.75,0.11,-0.58,-0.44,9.71,-0.1,0.0,-0.01,-2.47,-3.25,79978.0,0.0
-0.62,-0.45,9.76,-0.1,0.01,-0.01,9.79,0.1,-0.58,-0.44,9.72,-0.1,0.0,-0.01,-2.63,-3.64,80182.0,0.0
-0.52,-0.41,9.73,-0.11,0.01,-0.01,9.75,0.11,-0.58,-0.44,9.72,-0.1,0.0,-0.01,-2.42,-3.07,80386.0,0.0
-0.61,-0.46,9.76,-0.1,0.01,-0.01,9.79,0.11,-0.57,-0.43,9.72,-0.1,0.0,-0.01,-2.68,-3.59,80590.0,0.0
-0.56,-0.41,9.72,-0.1,0.0,-0.01,9.75,0.1,-0.58,-0.44,9.73,-0.1,0.0,-0.01,-2.41,-3.3,80794.0,0.0
-0.6,-0.42,9.68,-0.1,0.0,-0.01,9.71,0.11,-0.58,-0.43,9.73,-0.1,0.0,-0.01,-2.48,-3.55,80998.0,0.0
-0.62,-0.51,9.63,-0.1,0.01,-0.01,9.66,0.11,-0.58,-0.43,9.72,-0.1,0.0,-0.01,-3.0,-3.66,81202.0,0.0
-0.52,-0.4,9.72,-0.1,0.01,-0.01,9.74,0.1,-0.59,-0.44,9.7,-0.1,0.0,-0.01,-2.38,-3.08,81406.0,0.0
-0.53,-0.52,9.69,-0.11,0.01,-0.01,9.72,0.11,-0.57,-0.44,9.71,-0.1,0.01,-0.01,-3.05,-3.15,81610.0,0.0
-0.56,-0.43,9.7,-0.11,0.0,-0.01,9.72,0.11,-0.57,-0.45,9.7,-0.1,0.01,-0.01,-2.52,-3.32,81814.0,0.0
-0.58,-0.46,9.7,-0.1,0.0,-0.01,9.73,0.11,-0.57,-0.45,9.7,-0.1,0.0,-0.01,-2.73,-3.45,82018.0,0.0
-0.58,-0.46,9.62,-0.1,0.01,-0.01,9.64,0.11,-0.57,-0.45,9.7,-0.1,0.0,-0.01,-2.72,-3.45,82222.0,0.0
-0.55,-0.44,9.7,-0.1,0.01,-0.01,9.73,0.1,-0.57,-0.45,9.68,-0.1,0.01,-0.01,-2.61,-3.25,82426.0,0.0
-0.49,-0.38,9.64,-0.1,0.0,-0.01,9.66,0.1,-0.57,-0.45,9.69,-0.1,0.01,-0.01,-2.26,-2.93,82630.0,0.0
-0.56,-0.42,9.72,-0.1,0.0,-0.01,9.75,0.11,-0.55,-0.44,9.68,-0.1,0.01,-0.01,-2.47,-3.28,82834.0,0.0
-0.61,-0.46,9.64,-0.1,0.0,-0.01,9.67,0.1,-0.55,-0.43,9.69,-0.1,0.01,-0.01,-2.72,-3.64,83038.0,0.0
-0.57,-0.43,9.74,-0.11,0.0,-0.01,9.77,0.11,-0.57,-0.44,9.68,-0.1,0.0,-0.01,-2.52,-3.35,83242.0,0.0
-0.53,-0.41,9.7,-0.1,0.0,-0.01,9.72,0.1,-0.57,-0.44,9.69,-0.1,0.0,-0.01,-2.42,-3.14,83446.0,0.0
-0.59,-0.42,9.63,-0.11,0.0,-0.01,9.66,0.11,-0.56,-0.43,9.69,-0.1,0.0,-0.01,-2.49,-3.53,83650.0,0.0
-0.58,-0.48,9.69,-0.1,0.0,-0.01,9.72,0.1,-0.57,-0.43,9.68,-0.11,0.0,-0.01,-2.82,-3.42,83854.0,0.0
-0.57,-0.47,9.67,-0.1,0.0,-0.01,9.7,0.1,-0.57,-0.44,9.68,-0.1,0.0,-0.01,-2.76,-3.34,84058.0,0.0
-0.55,-0.33,9.62,-0.1,0.01,-0.01,9.64,0.1,-0.57,-0.44,9.68,-0.1,0.0,-0.01,-1.97,-3.29,84262.0,0.0
-0.53,-0.36,9.69,-0.11,0.01,-0.01,9.71,0.11,-0.57,-0.42,9.67,-0.1,0.0,-0.01,-2.12,-3.11,84466.0,0.0
-0.61,-0.44,9.73,-0.1,0.01,-0.01,9.76,0.1,-0.56,-0.41,9.67,-0.11,0.0,-0.01,-2.56,-3.6,84670.0,0.0
-0.52,-0.38,9.66,-0.1,0.0,-0.01,9.68,0.1,-0.57,-0.41,9.68,-0.1,0.0,-0.01,-2.24,-3.09,84874.0,0.0
-0.48,-0.47,9.68,-0.1,0.0,-0.01,9.7,0.1,-0.56,-0.41,9.68,-0.1,0.0,-0.01,-2.8,-2.85,85078.0,0.0
-0.54,-0.42,9.71,-0.11,0.0,-0.01,9.74,0.11,-0.54,-0.42,9.68,-0.1,0.0,-0.01,-2.46,-3.17,85282.0,0.0
-0.65,-0.47,9.69,-0.11,0.01,-0.01,9.72,0.11,-0.54,-0.42,9.69,-0.11,0.0,-0.01,-2.76,-3.84,85486.0,0.0
-0.63,-0.41,9.72,-0.11,0.0,-0.01,9.75,0.11,-0.56,-0.43,9.69,-0.11,0.0,-0.01,-2.41,-3.72,85690.0,0.0
-0.56,-0.49,9.71,-0.1,0.01,-0.01,9.73,0.1,-0.58,-0.43,9.69,-0.11,0.0,-0.01,-2.91,-3.32,85894.0,0.0
-0.51,-0.44,9.75,-0.1,0.01,-0.01,9.78,0.1,-0.57,-0.44,9.7,-0.11,0.0,-0.01,-2.6,-3.02,86098.0,0.0
-0.61,-0.45,9.77,-0.1,0.0,-0.01,9.8,0.1,-0.56,-0.44,9.71,-0.11,0.01,-0.01,-2.62,-3.58,86302.0,0.0
-0.64,-0.42,9.71,-0.11,0.0,-0.01,9.74,0.11,-0.57,-0.44,9.72,-0.1,0.0,-0.01,-2.48,-3.78,86506.0,0.0
-0.5,-0.36,9.61,-0.1,0.0,-0.01,9.63,0.11,-0.59,-0.44,9.72,-0.11,0.0,-0.01,-2.14,-2.98,86710.0,0.0
-0.57,-0.4,9.75,-0.1,0.01,-0.01,9.78,0.11,-0.57,-0.42,9.7,-0.11,0.0,-0.01,-2.38,-3.33,86914.0,0.0
-0.66,-0.42,9.67,-0.1,0.0,-0.01,9.7,0.1,-0.57,-0.42,9.71,-0.11,0.0,-0.01,-2.47,-3.88,87118.0,0.0
-0.63,-0.45,9.75,-0.1,0.01,-0.01,9.78,0.1,-0.59,-0.42,9.7,-0.1,0.0,-0.01,-2.62,-3.7,87322.0,0.0
-0.57,-0.44,9.7,-0.11,0.01,-0.01,9.73,0.11,-0.59,-0.42,9.71,-0.1,0.0,-0.01,-2.61,-3.36,87526.0,0.0
-0.61,-0.42,9.74,-0.1,0.01,-0.01,9.77,0.1,-0.59,-0.43,9.71,-0.1,0.0,-0.01,-2.46,-3.57,87730.0,0.0
-0.58,-0.39,9.67,-0.11,0.0,-0.01,9.69,0.11,-0.59,-0.43,9.71,-0.1,0.0,-0.01,-2.31,-3.43,87934.0,0.0
-0.64,-0.41,9.76,-0.1,0.01,-0.01,9.79,0.11,-0.59,-0.42,9.71,-0.1,0.0,-0.01,-2.39,-3.73,88138.0,0.0
-0.57,-0.39,9.77,-0.11,0.0,-0.01,9.79,0.11,-0.6,-0.42,9.72,-0.1,0.0,-0.01,-2.29,-3.32,88342.0,0.0
-0.52,-0.41,9.7,-0.11,0.0,-0.01,9.72,0.11,-0.59,-0.41,9.73,-0.1,0.0,-0.01,-2.42,-3.09,88546.0,0.0
-0.57,-0.51,9.73,-0.11,0.0,-0.01,9.76,0.11,-0.58,-0.41,9.72,-0.11,0.0,-0.01,-2.99,-3.37,88750.0,0.0
-0.67,-0.39,9.73,-0.1,0.0,-0.01,9.76,0.1,-0.58,-0.43,9.72,-0.11,0.0,-0.01,-2.28,-3.94,88954.0,0.0
-0.56,-0.4,9.62,-0.11,0.0,-0.01,9.65,0.11,-0.6,-0.42,9.72,-0.1,0.0,-0.01,-2.39,-3.3,89158.0,0.0
-0.58,-0.43,9.71,-0.1,0.0,-0.01,9.73,0.11,-0.59,-0.42,9.7,-0.11,0.0,-0.01,-2.51,-3.42,89362.0,0.0
-0.53,-0.45,9.73,-0.11,0.01,-0.01,9.76,0.11,-0.59,-0.42,9.7,-0.11,0.0,-0.01,-2.66,-3.14,89566.0,0.0
-0.61,-0.36,9.71,-0.11,0.01,-0.01,9.74,0.11,-0.58,-0.43,9.71,-0.11,0.0,-0.01,-2.12,-3.61,89770.0,0.0
-0.59,-0.47,9.67,-0.1,0.0,-0.01,9.7,0.1,-0.58,-0.41,9.71,-0.11,0.0,-0.01,-2.76,-3.47,89974.0,0.0
-0.58,-0.43,9.69,-0.11,0.01,-0.01,9.72,0.11,-0.58,-0.42,9.7,-0.11,0.0,-0.01,-2.55,-3.42,90178.0,0.0
-0.49,-0.45,9.7,-0.1,0.0,-0.01,9.72,0.1,-0.58,-0.42,9.7,-0.11,0.0,-0.01,-2.63,-2.91,90382.0,0.0
-0.61,-0.41,9.76,-0.11,0.0,-0.01,9.79,0.11,-0.57,-0.43,9.7,-0.1,0.0,-0.01,-2.42,-3.55,90586.0,0.0
-0.58,-0.4,9.75,-0.1,0.0,-0.01,9.78,0.1,-0.57,-0.43,9.71,-0.11,0.0,-0.01,-2.38,-3.41,90790.0,0.0
-0.62,-0.41,9.72,-0.1,0.0,-0.01,9.74,0.1,-0.57,-0.42,9.72,-0.1,0.0,-0.01,-2.43,-3.68,90994.0,0.0
-0.59,-0.48,9.7,-0.1,0.0,-0.01,9.73,0.1,-0.58,-0.42,9.72,-0.1,0.0,-0.01,-2.85,-3.46,91198.0,0.0
-0.59,-0.44,9.64,-0.1,0.0,-0.01,9.67,0.1,-0.59,-0.43,9.72,-0.1,0.0,-0.01,-2.59,-3.51,91402.0,0.0
-0.63,-0.38,9.7,-0.1,0.0,-0.01,9.73,0.1,-0.59,-0.43,9.7,-0.1,0.0,-0.01,-2.26,-3.71,91606.0,0.0
-0.56,-0.37,9.68,-0.11,0.0,-0.01,9.71,0.11,-0.6,-0.42,9.7,-0.1,0.0,-0.01,-2.17,-3.32,91810.0,0.0
-0.55,-0.49,9.64,-0.1,0.01,-0.01,9.67,0.1,-0.59,-0.41,9.7,-0.1,0.0,-0.01,-2.9,-3.24,92014.0,0.0
-0.59,-0.46,9.66,-0.11,0.01,-0.01,9.69,0.11,-0.58,-0.43,9.69,-0.1,0.0,-0.01,-2.71,-3.47,92218.0,0.0
-0.59,-0.46,9.68,-0.1,0.0,-0.01,9.71,0.1,-0.58,-0.43,9.68,-0.1,0.0,-0.01,-2.73,-3.5,92422.0,0.0
-0.64,-0.38,9.64,-0.11,0.0,-0.01,9.67,0.11,-0.58,-0.44,9.68,-0.1,0.0,-0.01,-2.23,-3.79,92626.0,0.0
-0.62,-0.43,9.7,-0.1,0.01,-0.01,9.73,0.1,-0.59,-0.43,9.67,-0.11,0.0,-0.01,-2.54,-3.67,92830.0,0.0
-0.61,-0.43,9.69,-0.1,0.01,-0.01,9.72,0.1,-0.6,-0.43,9.68,-0.1,0.0,-0.01,-2.52,-3.59,93034.0,0.0
-0.62,-0.43,9.77,-0.11,0.01,-0.01,9.8,0.11,-0.6,-0.43,9.68,-0.1,0.0,-0.01,-2.54,-3.63,93238.0,0.0
-0.62,-0.42,9.7,-0.1,0.0,-0.01,9.73,0.1,-0.61,-0.43,9.7,-0.1,0.01,-0.01,-2.5,-3.64,93442.0,0.0
-0.54,-0.42,9.74,-0.11,0.0,-0.01,9.77,0.11,-0.61,-0.43,9.7,-0.1,0.0,-0.01,-2.45,-3.16,93646.0,0.0
-0.6,-0.46,9.65,-0.1,0.01,-0.01,9.68,0.1,-0.59,-0.43,9.71,-0.1,0.0,-0.01,-2.74,-3.55,93850.0,0.0
-0.61,-0.35,9.78,-0.11,0.0,-0.01,9.81,0.11,-0.59,-0.43,9.7,-0.1,0.01,-0.01,-2.06,-3.54,94054.0,0.0
-0.61,-0.4,9.73,-0.1,0.0,-0.01,9.76,0.1,-0.6,-0.42,9.71,-0.11,0.0,-0.01,-2.32,-3.6,94258.0,0.0
-0.58,-0.43,9.66,-0.1,0.01,-0.01,9.69,0.1,-0.6,-0.41,9.72,-0.1,0.0,-0.01,-2.55,-3.46,94462.0,0.0
-0.55,-0.42,9.69,-0.11,0.01,-0.01,9.72,0.11,-0.6,-0.42,9.71,-0.1,0.0,-0.01,-2.49,-3.22,94666.0,0.0
-0.57,-0.38,9.71,-0.1,0.0,-0.01,9.73,0.1,-0.59,-0.42,9.7,-0.1,0.01,-0.01,-2.22,-3.35,94870.0,0.0
-0.59,-0.44,9.76,-0.1,0.0,-0.01,9.78,0.1,-0.58,-0.41,9.7,-0.1,0.01,-0.01,-2.6,-3.45,95074.0,0.0
-0.63,-0.37,9.69,-0.11,0.01,-0.01,9.71,0.11,-0.58,-0.42,9.72,-0.1,0.0,-0.01,-2.17,-3.72,95278.0,0.0
-0.54,-0.45,9.67,-0.1,0.01,-0.01,9.7,0.1,-0.59,-0.41,9.71,-0.1,0.0,-0.01,-2.64,-3.17,95482.0,0.0
-0.57,-0.44,9.73,-0.1,0.0,-0.01,9.76,0.1,-0.58,-0.41,9.7,-0.1,0.0,-0.01,-2.61,-3.35,95686.0,0.0
-0.65,-0.37,9.7,-0.1,0.01,-0.01,9.73,0.11,-0.58,-0.42,9.71,-0.1,0.0,-0.01,-2.19,-3.85,95890.0,0.0
-0.62,-0.43,9.73,-0.11,0.0,-0.01,9.75,0.11,-0.59,-0.41,9.71,-0.1,0.0,-0.01,-2.52,-3.63,96094.0,0.0
-0.59,-0.43,9.79,-0.11,0.0,-0.01,9.82,0.11,-0.6,-0.41,9.71,-0.1,0.0,-0.01,-2.52,-3.43,96298.0,0.0
-0.54,-0.5,9.72,-0.1,0.01,-0.01,9.75,0.1,-0.6,-0.42,9.73,-0.1,0.0,-0.01,-2.95,-3.16,96502.0,0.0
-0.57,-0.41,9.77,-0.1,0.01,-0.01,9.79,0.1,-0.58,-0.43,9.73,-0.1,0.0,-0.01,-2.39,-3.34,96706.0,0.0
-0.58,-0.5,9.74,-0.1,0.0,-0.01,9.77,0.1,-0.58,-0.43,9.73,-0.1,0.01,-0.01,-2.91,-3.39,96910.0,0.0
-0.58,-0.43,9.73,-0.1,0.0,-0.01,9.76,0.1,-0.58,-0.44,9.74,-0.1,0.0,-0.01,-2.51,-3.41,97114.0,0.0
-0.55,-0.47,9.73,-0.1,0.0,-0.01,9.75,0.1,-0.58,-0.44,9.73,-0.1,0.0,-0.01,-2.75,-3.21,97318.0,0.0
-0.57,-0.38,9.74,-0.11,0.01,-0.01,9.76,0.11,-0.57,-0.44,9.73,-0.1,0.0,-0.01,-2.21,-3.36,97522.0,0.0
-0.57,-0.43,9.74,-0.1,0.0,-0.01,9.76,0.1,-0.57,-0.43,9.73,-0.1,0.0,-0.01,-2.51,-3.34,97726.0,0.0
-0.53,-0.45,9.68,-0.11,0.01,-0.01,9.7,0.11,-0.57,-0.43,9.73,-0.1,0.0,-0.01,-2.63,-3.16,97930.0,0.0
-0.57,-0.4,9.73,-0.1,0.0,-0.01,9.75,0.1,-0.56,-0.43,9.72,-0.1,0.0,-0.01,-2.34,-3.38,98134.0,0.0
-0.61,-0.4,9.74,-0.1,0.0,-0.01,9.77,0.1,-0.57,-0.43,9.72,-0.1,0.0,-0.01,-2.32,-3.56,98338.0,0.0
-0.63,-0.47,9.73,-0.11,0.0,-0.01,9.76,0.11,-0.57,-0.42,9.73,-0.1,0.0,-0.01,-2.79,-3.72,98542.0,0.0
-0.53,-0.35,9.67,-0.1,0.0,-0.01,9.69,0.11,-0.59,-0.43,9.73,-0.1,0.0,-0.01,-2.1,-3.16,98746.0,0.0
-0.52,-0.46,9.69,-0.11,0.0,-0.01,9.72,0.11,-0.58,-0.42,9.72,-0.1,0.0,-0.01,-2.72,-3.07,98950.0,0.0
-0.52,-0.37,9.67,-0.1,0.01,-0.01,9.69,0.1,-0.56,-0.42,9.71,-0.1,0.0,-0.01,-2.17,-3.09,99154.0,0.0
-0.59,-0.46,9.66,-0.11,0.0,-0.01,9.69,0.11,-0.56,-0.41,9.7,-0.1,0.0,-0.01,-2.75,-3.47,99358.0,0.0
-0.59,-0.43,9.64,-0.1,0.01,-0.01,9.67,0.1,-0.56,-0.42,9.69,-0.11,0.0,-0.01,-2.55,-3.51,99562.0,0.0
-0.56,-0.43,9.68,-0.1,0.0,-0.01,9.71,0.1,-0.57,-0.42,9.68,-0.1,0.0,-0.01,-2.52,-3.3,99766.0,0.0
-0.51,-0.41,9.72,-0.11,0.0,-0.01,9.74,0.11,-0.57,-0.42,9.68,-0.1,0.0,-0.01,-2.41,-3.0,99970.0,0.0
-0.59,-0.42,9.69,-0.11,0.0,-0.01,9.72,0.11,-0.55,-0.42,9.69,-0.11,0.0,-0.01,-2.46,-3.49,100174.0,0.0
-0.61,-0.42,9.75,-0.1,0.0,-0.01,9.78,0.1,-0.56,-0.42,9.69,-0.11,0.0,-0.01,-2.46,-3.57,100378.0,0.0
-0.49,-0.38,9.69,-0.1,0.01,-0.01,9.71,0.1,-0.57,-0.42,9.7,-0.1,0.0,-0.01,-2.22,-2.91,100582.0,0.0
-0.53,-0.38,9.8,-0.1,0.01,-0.01,9.82,0.1,-0.56,-0.41,9.7,-0.1,0.0,-0.01,-2.2,-3.08,100786.0,0.0
-0.51,-0.38,9.79,-0.11,0.02,-0.01,9.81,0.11,-0.55,-0.4,9.72,-0.1,0.0,-0.01,-2.2,-2.98,100990.0,0.0
-0.57,-0.42,9.61,-0.12,0.03,-0.01,9.63,0.13,-0.54,-0.4,9.73,-0.1,0.01,-0.01,-2.5,-3.41,101194.0,0.0
-0.67,-0.51,9.63,-0.13,0.03,-0.01,9.67,0.13,-0.55,-0.4,9.71,-0.11,0.01,-0.01,-3.0,-3.95,101398.0,0.0
-0.64,-0.53,9.68,-0.11,0.01,-0.01,9.72,0.11,-0.57,-0.42,9.69,-0.11,0.01,-0.01,-3.13,-3.76,101602.0,0.0
-0.65,-0.51,9.66,-0.11,0.01,-0.01,9.7,0.11,-0.58,-0.44,9.69,-0.11,0.01,-0.01,-3.02,-3.87,101806.0,0.0
-0.65,-0.51,9.62,-0.1,0.0,-0.01,9.66,0.1,-0.6,-0.46,9.68,-0.11,0.01,-0.01,-3.06,-3.87,102010.0,0.0
-0.47,-0.54,10.26,-0.1,0.01,-0.02,10.29,0.1,-0.61,-0.47,9.67,-0.11,0.01,-0.01,-3.02,-2.63,102214.0,0.0
-0.56,-0.34,9.7,-0.1,0.0,-0.01,9.72,0.1,-0.58,-0.48,9.79,-0.11,0.01,-0.01,-1.99,-3.32,102418.0,0.0
-0.46,-0.46,9.73,-0.11,0.01,-0.01,9.75,0.11,-0.58,-0.45,9.77,-0.11,0.01,-0.01,-2.72,-2.7,102622.0,0.0
-0.54,-0.46,9.7,-0.1,0.0,-0.01,9.73,0.11,-0.55,-0.46,9.76,-0.11,0.01,-0.01,-2.73,-3.19,102826.0,0.0
-0.46,-0.4,9.65,-0.1,0.0,-0.01,9.67,0.1,-0.55,-0.46,9.75,-0.11,0.01,-0.01,-2.37,-2.73,103030.0,0.0
-0.47,-0.37,9.69,-0.11,0.0,-0.01,9.71,0.11,-0.53,-0.45,9.73,-0.11,0.01,-0.01,-2.16,-2.8,103234.0,0.0
-0.5,-0.4,9.69,-0.1,0.01,-0.01,9.71,0.1,-0.52,-0.43,9.72,-0.11,0.01,-0.01,-2.38,-2.96,103438.0,0.0
-0.56,-0.38,9.71,-0.1,0.0,-0.01,9.73,0.1,-0.52,-0.42,9.72,-0.1,0.01,-0.01,-2.23,-3.32,103642.0,0.0
-0.51,-0.39,9.62,-0.1,0.01,-0.01,9.64,0.11,-0.53,-0.42,9.71,-0.1,0.0,-0.01,-2.29,-3.01,103846.0,0.0
-0.43,-0.39,9.7,-0.1,0.0,-0.01,9.72,0.1,-0.52,-0.41,9.7,-0.1,0.0,-0.01,-2.3,-2.51,104050.0,0.0
-0.5,-0.39,9.72,-0.1,0.0,-0.01,9.74,0.11,-0.5,-0.41,9.7,-0.1,0.0,-0.01,-2.27,-2.93,104254.0,0.0
-0.55,-0.39,9.74,-0.11,0.01,-0.01,9.76,0.11,-0.5,-0.4,9.7,-0.1,0.0,-0.01,-2.31,-3.21,104458.0,0.0
-0.6,-0.31,9.67,-0.11,0.0,-0.01,9.7,0.11,-0.51,-0.4,9.71,-0.11,0.0,-0.01,-1.81,-3.57,104662.0,0.0
-0.5,-0.4,9.69,-0.1,0.0,-0.01,9.71,0.1,-0.53,-0.38,9.7,-0.11,0.0,-0.01,-2.33,-2.93,104866.0,0.0
-0.55,-0.3,9.69,-0.11,0.0,-0.01,9.71,0.11,-0.52,-0.38,9.7,-0.1,0.0,-0.01,-1.77,-3.27,105070.0,0.0
-0.49,-0.43,9.68,-0.1,0.01,-0.01,9.7,0.1,-0.53,-0.37,9.7,-0.11,0.0,-0.01,-2.55,-2.9,105274.0,0.0
-0.56,-0.41,9.69,-0.1,0.0,-0.01,9.71,0.11,-0.52,-0.38,9.7,-0.1,0.0,-0.01,-2.45,-3.28,105478.0,0.0
-0.5,-0.39,9.79,-0.1,0.01,-0.01,9.81,0.11,-0.53,-0.39,9.69,-0.1,0.0,-0.01,-2.27,-2.91,105682.0,0.0
-0.53,-0.39,9.7,-0.1,0.0,-0.01,9.73,0.1,-0.52,-0.39,9.71,-0.1,0.0,-0.01,-2.27,-3.11,105886.0,0.0
-0.55,-0.36,9.68,-0.11,0.01,-0.01,9.71,0.11,-0.52,-0.39,9.71,-0.1,0.0,-0.01,-2.14,-3.23,106090.0,0.0
-0.58,-0.42,9.74,-0.11,0.0,-0.01,9.77,0.11,-0.53,-0.38,9.71,-0.1,0.0,-0.01,-2.46,-3.39,106294.0,0.0
-0.52,-0.35,9.66,-0.1,0.0,-0.01,9.68,0.11,-0.54,-0.39,9.71,-0.1,0.0,-0.01,-2.09,-3.08,106498.0,0.0
-0.54,-0.42,9.74,-0.11,0.0,-0.01,9.77,0.11,-0.53,-0.38,9.7,-0.1,0.0,-0.01,-2.46,-3.18,106702.0,0.0
-0.54,-0.38,9.73,-0.11,0.01,-0.01,9.75,0.11,-0.54,-0.39,9.71,-0.1,0.0,-0.01,-2.23,-3.15,106906.0,0.0
-0.57,-0.38,9.73,-0.11,0.0,-0.01,9.76,0.11,-0.54,-0.39,9.71,-0.1,0.0,-0.01,-2.24,-3.35,107110.0,0.0
-0.51,-0.37,9.67,-0.1,0.01,-0.01,9.69,0.1,-0.54,-0.39,9.72,-0.11,0.0,-0.01,-2.18,-3.02,107314.0,0.0
-0.49,-0.39,9.74,-0.1,0.0,-0.01,9.76,0.1,-0.54,-0.38,9.71,-0.1,0.0,-0.01,-2.29,-2.86,107518.0,0.0
-0.41,-0.4,9.65,-0.1,0.0,-0.01,9.66,0.1,-0.53,-0.38,9.72,-0.1,0.0,-0.01,-2.37,-2.46,107722.0,0.0
-0.5,-0.36,9.84,-0.1,0.0,-0.01,9.86,0.1,-0.5,-0.39,9.7,-0.1,0.0,-0.01,-2.12,-2.9,107926.0,0.0
-0.56,-0.39,9.72,-0.1,0.01,-0.01,9.74,0.11,-0.5,-0.38,9.73,-0.1,0.0,-0.01,-2.27,-3.31,108130.0,0.0
-0.39,-0.38,9.75,-0.1,0.0,-0.01,9.76,0.11,-0.51,-0.38,9.73,-0.1,0.0,-0.01,-2.22,-2.26,108334.0,0.0
-0.5,-0.43,9.69,-0.1,0.0,-0.01,9.71,0.1,-0.49,-0.38,9.73,-0.1,0.0,-0.01,-2.53,-2.93,108538.0,0.0
-0.51,-0.4,9.68,-0.11,0.0,-0.01,9.7,0.11,-0.49,-0.39,9.72,-0.1,0.0,-0.01,-2.38,-3.03,108742.0,0.0
-0.54,-0.35,9.75,-0.1,0.0,-0.01,9.77,0.1,-0.49,-0.39,9.71,-0.1,0.0,-0.01,-2.08,-3.19,108946.0,0.0
-0.45,-0.42,9.87,-0.11,0.0,-0.01,9.89,0.11,-0.5,-0.39,9.72,-0.1,0.0,-0.01,-2.42,-2.61,109150.0,0.0
-0.49,-0.33,9.72,-0.11,0.0,-0.01,9.74,0.11,-0.49,-0.39,9.75,-0.1,0.0,-0.01,-1.93,-2.86,109354.0,0.0
-0.55,-0.39,9.63,-0.1,0.0,-0.01,9.65,0.11,-0.49,-0.38,9.74,-0.11,0.0,-0.01,-2.31,-3.29,109558.0,0.0
-0.55,-0.38,9.64,-0.1,0.0,-0.01,9.66,0.1,-0.5,-0.38,9.72,-0.11,0.0,-0.01,-2.26,-3.28,109762.0,0.0
-0.53,-0.43,9.74,-0.1,0.01,0.0,9.76,0.1,-0.51,-0.38,9.71,-0.1,0.0,-0.01,-2.52,-3.14,109966.0,0.0
-0.49,-0.37,9.77,-0.1,0.0,-0.01,9.79,0.11,-0.52,-0.39,9.71,-0.1,0.0,-0.01,-2.18,-2.86,110170.0,0.0
-0.56,-0.37,9.74,-0.1,0.0,-0.01,9.76,0.1,-0.51,-0.39,9.72,-0.1,0.0,-0.01,-2.18,-3.29,110374.0,0.0
-0.51,-0.43,9.73,-0.1,0.01,-0.01,9.75,0.1,-0.52,-0.38,9.73,-0.1,0.0,-0.01,-2.51,-3.0,110578.0,0.0
-0.59,-0.36,9.65,-0.11,0.01,-0.01,9.67,0.11,-0.52,-0.39,9.73,-0.1,0.0,-0.01,-2.16,-3.52,110782.0,0.0
-0.47,-0.44,9.8,-0.1,0.0,-0.01,9.82,0.1,-0.53,-0.39,9.71,-0.1,0.0,-0.01,-2.56,-2.73,110986.0,0.0
-0.51,-0.4,9.64,-0.11,0.0,-0.01,9.66,0.11,-0.52,-0.4,9.73,-0.1,0.0,-0.01,-2.39,-3.0,111190.0,0.0
-0.49,-0.5,9.7,-0.1,0.01,-0.01,9.72,0.11,-0.52,-0.4,9.71,-0.1,0.0,-0.01,-2.94,-2.87,111394.0,0.0
-0.56,-0.44,9.69,-0.1,0.01,-0.01,9.72,0.11,-0.51,-0.42,9.71,-0.1,0.0,-0.01,-2.59,-3.29,111598.0,0.0
-0.55,-0.41,9.74,-0.1,0.01,-0.01,9.76,0.1,-0.52,-0.42,9.71,-0.1,0.0,-0.01,-2.42,-3.25,111802.0,0.0
-0.46,-0.4,9.72,-0.1,0.0,-0.01,9.74,0.11,-0.53,-0.42,9.71,-0.1,0.01,-0.01,-2.37,-2.72,112006.0,0.0
-0.53,-0.46,9.68,-0.11,0.01,-0.01,9.7,0.11,-0.51,-0.42,9.71,-0.1,0.01,-0.01,-2.71,-3.16,112210.0,0.0
-0.53,-0.38,9.73,-0.1,0.0,-0.01,9.76,0.1,-0.52,-0.42,9.71,-0.1,0.01,-0.01,-2.25,-3.14,112414.0,0.0
-0.53,-0.43,9.79,-0.1,0.0,-0.01,9.81,0.1,-0.52,-0.42,9.71,-0.1,0.0,-0.01,-2.54,-3.08,112618.0,0.0
-0.5,-0.39,9.69,-0.1,0.0,-0.01,9.71,0.1,-0.52,-0.42,9.73,-0.1,0.0,-0.01,-2.31,-2.94,112822.0,0.0
-0.51,-0.4,9.67,-0.11,0.01,-0.01,9.69,0.11,-0.52,-0.41,9.72,-0.1,0.0,-0.01,-2.34,-3.03,113026.0,0.0
-0.59,-0.42,9.79,-0.11,0.0,-0.01,9.81,0.11,-0.52,-0.41,9.71,-0.1,0.0,-0.01,-2.44,-3.47,113230.0,0.0
-0.51,-0.36,9.73,-0.1,0.01,-0.01,9.75,0.1,-0.53,-0.41,9.72,-0.1,0.0,-0.01,-2.1,-2.99,113434.0,0.0
-0.43,-0.45,9.64,-0.1,0.0,-0.01,9.66,0.1,-0.53,-0.4,9.72,-0.1,0.01,-0.01,-2.64,-2.57,113638.0,0.0
-0.5,-0.4,9.67,-0.11,0.01,-0.01,9.69,0.11,-0.51,-0.41,9.71,-0.1,0.01,-0.01,-2.37,-2.96,113842.0,0.0
-0.56,-0.41,9.8,-0.1,0.0,-0.01,9.83,0.1,-0.51,-0.41,9.7,-0.1,0.01,-0.01,-2.42,-3.28,114046.0,0.0
-0.49,-0.36,9.77,-0.1,0.0,-0.01,9.79,0.11,-0.52,-0.41,9.72,-0.1,0.01,-0.01,-2.1,-2.85,114250.0,0.0
-0.45,-0.47,9.69,-0.1,0.01,-0.01,9.72,0.1,-0.51,-0.4,9.73,-0.1,0.0,-0.01,-2.8,-2.69,114454.0,0.0
-0.62,-0.31,9.66,-0.11,0.0,-0.01,9.69,0.11,-0.5,-0.41,9.72,-0.1,0.01,-0.01,-1.85,-3.64,114658.0,0.0
-0.54,-0.36,9.67,-0.11,0.01,-0.01,9.69,0.11,-0.52,-0.39,9.71,-0.1,0.0,-0.01,-2.13,-3.19,114862.0,0.0
-0.48,-0.38,9.77,-0.1,0.0,-0.01,9.79,0.11,-0.53,-0.39,9.7,-0.11,0.01,-0.01,-2.23,-2.83,115066.0,0.0
-0.47,-0.32,9.75,-0.11,0.0,-0.01,9.77,0.11,-0.52,-0.39,9.72,-0.1,0.0,-0.01,-1.9,-2.75,115270.0,0.0
-0.52,-0.36,9.7,-0.11,0.0,-0.01,9.72,0.11,-0.51,-0.37,9.72,-0.11,0.0,-0.01,-2.12,-3.08,115474.0,0.0
-0.54,-0.44,9.74,-0.11,0.01,-0.01,9.77,0.11,-0.51,-0.37,9.72,-0.11,0.0,-0.01,-2.56,-3.17,115678.0,0.0
-0.5,-0.39,9.73,-0.1,0.0,-0.01,9.75,0.1,-0.52,-0.38,9.72,-0.11,0.0,-0.01,-2.3,-2.94,115882.0,0.0
-0.46,-0.39,9.69,-0.11,0.01,-0.01,9.71,0.11,-0.51,-0.38,9.72,-0.1,0.0,-0.01,-2.31,-2.7,116086.0,0.0
-0.49,-0.38,9.73,-0.1,0.0,-0.01,9.75,0.1,-0.5,-0.39,9.72,-0.11,0.0,-0.01,-2.21,-2.87,116290.0,0.0
-0.63,-0.42,9.72,-0.11,0.0,-0.01,9.75,0.11,-0.5,-0.38,9.72,-0.1,0.0,-0.01,-2.47,-3.73,116494.0,0.0
-0.48,-0.41,9.79,-0.11,0.0,-0.01,9.81,0.11,-0.53,-0.39,9.72,-0.11,0.0,-0.01,-2.42,-2.83,116698.0,0.0
-0.49,-0.33,9.72,-0.11,0.0,-0.01,9.74,0.11,-0.52,-0.4,9.73,-0.11,0.0,-0.01,-1.96,-2.89,116902.0,0.0
-0.5,-0.43,9.74,-0.11,0.01,-0.01,9.77,0.11,-0.51,-0.38,9.73,-0.11,0.0,-0.01,-2.52,-2.91,117106.0,0.0
-0.55,-0.37,9.65,-0.1,0.0,-0.01,9.67,0.11,-0.51,-0.39,9.73,-0.11,0.0,-0.01,-2.22,-3.24,117310.0,0.0
-0.59,-0.33,9.72,-0.1,0.01,-0.01,9.75,0.1,-0.52,-0.39,9.72,-0.11,0.0,-0.01,-1.96,-3.47,117514.0,0.0
-0.51,-0.38,9.7,-0.1,0.0,-0.01,9.72,0.1,-0.53,-0.38,9.72,-0.1,0.0,-0.01,-2.25,-3.04,117718.0,0.0
-0.52,-0.38,9.77,-0.1,0.01,-0.01,9.79,0.1,-0.53,-0.38,9.72,-0.1,0.0,-0.01,-2.25,-3.05,117922.0,0.0
-0.54,-0.45,9.71,-0.1,0.0,-0.01,9.73,0.1,-0.53,-0.38,9.73,-0.1,0.0,-0.01,-2.63,-3.19,118126.0,0.0
-0.55,-0.37,9.78,-0.1,0.01,-0.01,9.8,0.1,-0.53,-0.39,9.72,-0.1,0.0,-0.01,-2.19,-3.19,118330.0,0.0
-0.5,-0.4,9.73,-0.1,0.0,-0.01,9.75,0.1,-0.53,-0.39,9.73,-0.1,0.0,-0.01,-2.35,-2.95,118534.0,0.0
-0.5,-0.4,9.73,-0.1,0.0,-0.01,9.75,0.1,-0.53,-0.39,9.73,-0.1,0.0,-0.01,-2.37,-2.96,118738.0,0.0
-0.5,-0.47,9.81,-0.11,0.0,-0.01,9.84,0.11,-0.52,-0.39,9.73,-0.1,0.0,-0.01,-2.72,-2.93,118942.0,0.0
-0.58,-0.39,9.7,-0.1,0.01,-0.01,9.72,0.1,-0.52,-0.41,9.75,-0.1,0.0,-0.01,-2.28,-3.45,119146.0,0.0
-0.44,-0.46,9.74,-0.1,0.0,-0.01,9.76,0.1,-0.53,-0.4,9.74,-0.1,0.0,-0.01,-2.7,-2.6,119350.0,0.0
-0.51,-0.38,9.73,-0.11,0.01,-0.01,9.75,0.11,-0.51,-0.41,9.74,-0.1,0.0,-0.01,-2.24,-2.99,119554.0,0.0
-0.51,-0.39,9.71,-0.11,0.01,-0.01,9.73,0.11,-0.51,-0.41,9.74,-0.1,0.0,-0.01,-2.27,-2.99,119758.0,0.0
-0.58,-0.36,9.75,-0.1,0.0,-0.01,9.77,0.11,-0.51,-0.4,9.73,-0.1,0.0,-0.01,-2.12,-3.42,119962.0,0.0
-0.51,-0.44,9.77,-0.1,0.0,-0.01,9.8,0.1,-0.53,-0.39,9.73,-0.1,0.0,-0.01,-2.55,-2.96,120166.0,0.0
-0.51,-0.35,9.53,-0.11,0.0,-0.01,9.55,0.11,-0.52,-0.4,9.74,-0.1,0.0,-0.01,-2.11,-3.09,120370.0,0.0
-0.55,-0.36,9.75,-0.1,0.01,-0.01,9.77,0.1,-0.52,-0.39,9.7,-0.11,0.0,-0.01,-2.1,-3.23,120574.0,0.0
-0.6,-0.38,9.74,-0.1,0.0,-0.01,9.77,0.1,-0.53,-0.39,9.71,-0.1,0.0,-0.01,-2.22,-3.53,120778.0,0.0
-0.55,-0.41,9.71,-0.1,0.0,-0.01,9.74,0.1,-0.54,-0.38,9.72,-0.1,0.0,-0.01,-2.43,-3.26,120982.0,0.0
-0.42,-0.32,9.77,-0.1,0.0,-0.01,9.79,0.1,-0.54,-0.39,9.72,-0.1,0.0,-0.01,-1.88,-2.48,121186.0,0.0
-0.51,-0.42,9.63,-0.1,0.01,-0.01,9.66,0.11,-0.52,-0.38,9.73,-0.1,0.0,-0.01,-2.49,-3.06,121390.0,0.0
-0.57,-0.36,9.83,-0.1,0.0,-0.01,9.85,0.1,-0.52,-0.38,9.71,-0.1,0.0,-0.01,-2.11,-3.33,121594.0,0.0
-0.57,-0.42,9.74,-0.11,0.0,-0.01,9.77,0.11,-0.53,-0.38,9.73,-0.1,0.0,-0.01,-2.49,-3.33,121798.0,0.0
-0.43,-0.41,9.82,-0.1,0.0,-0.01,9.84,0.1,-0.54,-0.39,9.73,-0.1,0.0,-0.01,-2.37,-2.5,122002.0,0.0
-0.47,-0.39,9.7,-0.11,0.01,-0.01,9.72,0.11,-0.52,-0.39,9.75,-0.1,0.0,-0.01,-2.32,-2.77,122206.0,0.0
-0.6,-0.44,9.77,-0.1,0.01,-0.01,9.79,0.1,-0.51,-0.39,9.74,-0.1,0.0,-0.01,-2.6,-3.54,122410.0,0.0
-0.52,-0.36,9.67,-0.1,0.0,-0.01,9.69,0.1,-0.53,-0.4,9.75,-0.1,0.0,-0.01,-2.16,-3.09,122614.0,0.0
-0.42,-0.4,9.79,-0.1,0.0,-0.01,9.81,0.11,-0.52,-0.39,9.73,-0.1,0.0,-0.01,-2.37,-2.48,122818.0,0.0
-0.49,-0.39,9.67,-0.1,0.0,-0.01,9.7,0.11,-0.5,-0.4,9.74,-0.1,0.0,-0.01,-2.31,-2.89,123022.0,0.0
-0.61,-0.55,9.81,-0.12,0.02,-0.01,9.85,0.12,-0.5,-0.4,9.73,-0.1,0.0,-0.01,-3.21,-3.57,123226.0,0.0
-0.48,-0.33,9.69,-0.1,0.0,-0.01,9.7,0.1,-0.52,-0.43,9.75,-0.11,0.01,-0.01,-1.97,-2.82,123430.0,0.0
-0.48,-0.37,9.83,-0.11,0.01,-0.01,9.85,0.11,-0.51,-0.41,9.73,-0.11,0.01,-0.01,-2.18,-2.78,123634.0,0.0
-0.51,-0.35,9.67,-0.1,0.0,-0.01,9.7,0.1,-0.51,-0.4,9.75,-0.11,0.01,-0.01,-2.1,-3.03,123838.0,0.0
-0.56,-0.4,9.61,-0.1,0.01,-0.01,9.64,0.1,-0.51,-0.39,9.74,-0.1,0.0,-0.01,-2.41,-3.35,124042.0,0.0
-0.54,-0.5,9.71,-0.11,0.0,-0.01,9.74,0.11,-0.52,-0.39,9.71,-0.1,0.01,-0.01,-2.94,-3.19,124246.0,0.0
-0.56,-0.33,9.75,-0.11,0.01,-0.01,9.77,0.11,-0.52,-0.41,9.71,-0.11,0.0,-0.01,-1.96,-3.26,124450.0,0.0
-0.5,-0.38,9.7,-0.11,0.0,-0.01,9.72,0.11,-0.53,-0.4,9.72,-0.11,0.01,-0.01,-2.23,-2.95,124654.0,0.0
-0.56,-0.31,9.64,-0.11,0.0,-0.01,9.66,0.11,-0.52,-0.39,9.71,-0.11,0.0,-0.01,-1.86,-3.33,124858.0,0.0
-0.54,-0.39,9.69,-0.1,0.0,-0.01,9.71,0.1,-0.53,-0.38,9.7,-0.11,0.0,-0.01,-2.29,-3.21,125062.0,0.0
-0.52,-0.33,9.68,-0.1,0.0,-0.01,9.7,0.1,-0.53,-0.38,9.7,-0.11,0.0,-0.01,-1.93,-3.07,125266.0,0.0
-0.51,-0.37,9.73,-0.1,0.0,-0.01,9.75,0.1,-0.53,-0.37,9.69,-0.1,0.0,-0.01,-2.16,-3.03,125470.0,0.0
-0.46,-0.4,9.58,-0.1,0.0,-0.01,9.6,0.11,-0.53,-0.37,9.7,-0.1,0.0,-0.01,-2.38,-2.76,125674.0,0.0
-0.51,-0.44,9.78,-0.11,0.01,-0.01,9.8,0.11,-0.51,-0.37,9.68,-0.1,0.0,-0.01,-2.55,-3.01,125878.0,0.0
-0.49,-0.3,9.72,-0.1,0.0,-0.01,9.74,0.11,-0.51,-0.39,9.7,-0.1,0.0,-0.01,-1.76,-2.88,126082.0,0.0
-0.46,-0.38,9.68,-0.11,0.0,-0.01,9.7,0.11,-0.51,-0.37,9.7,-0.1,0.0,-0.01,-2.27,-2.75,126286.0,0.0
-0.48,-0.39,9.69,-0.11,0.0,-0.01,9.71,0.11,-0.5,-0.37,9.7,-0.11,0.0,-0.01,-2.31,-2.82,126490.0,0.0
-0.53,-0.42,9.63,-0.11,0.01,-0.01,9.65,0.11,-0.5,-0.38,9.7,-0.11,0.0,-0.01,-2.51,-3.16,126694.0,0.0
-0.44,-0.39,9.8,-0.11,0.0,-0.01,9.81,0.11,-0.5,-0.38,9.68,-0.11,0.01,-0.01,-2.28,-2.56,126898.0,0.0
-0.52,-0.37,9.72,-0.1,0.01,-0.01,9.74,0.11,-0.49,-0.39,9.71,-0.11,0.0,-0.01,-2.17,-3.09,127102.0,0.0
-0.53,-0.31,9.7,-0.11,0.0,-0.01,9.72,0.11,-0.5,-0.38,9.71,-0.11,0.01,-0.01,-1.82,-3.11,127306.0,0.0
-0.57,-0.37,9.74,-0.1,0.01,-0.01,9.76,0.1,-0.5,-0.37,9.71,-0.11,0.0,-0.01,-2.15,-3.33,127510.0,0.0
-0.55,-0.41,9.72,-0.1,0.0,-0.01,9.75,0.1,-0.52,-0.37,9.71,-0.1,0.0,-0.01,-2.41,-3.21,127714.0,0.0
-0.52,-0.36,9.69,-0.1,0.0,-0.01,9.71,0.1,-0.52,-0.38,9.71,-0.1,0.0,-0.01,-2.12,-3.06,127918.0,0.0
-0.5,-0.4,9.68,-0.11,0.01,-0.01,9.7,0.11,-0.52,-0.37,9.71,-0.1,0.0,-0.01,-2.35,-2.93,128122.0,0.0
-0.51,-0.37,9.78,-0.11,0.0,-0.01,9.8,0.11,-0.52,-0.38,9.7,-0.1,0.0,-0.01,-2.17,-2.96,128326.0,0.0
-0.45,-0.38,9.81,-0.1,0.0,-0.01,9.82,0.1,-0.51,-0.38,9.72,-0.11,0.0,-0.01,-2.22,-2.64,128530.0,0.0
-0.53,-0.4,9.73,-0.1,0.01,-0.01,9.75,0.1,-0.5,-0.38,9.74,-0.1,0.0,-0.01,-2.34,-3.1,128734.0,0.0
-0.5,-0.4,9.67,-0.11,0.01,-0.01,9.7,0.11,-0.51,-0.38,9.74,-0.1,0.0,-0.01,-2.37,-2.96,128938.0,0.0
-0.52,-0.33,9.69,-0.1,0.0,-0.01,9.71,0.11,-0.51,-0.38,9.72,-0.1,0.01,-0.01,-1.97,-3.07,129142.0,0.0
-0.53,-0.38,9.75,-0.11,0.01,-0.01,9.77,0.11,-0.51,-0.37,9.72,-0.1,0.0,-0.01,-2.21,-3.11,129346.0,0.0
-0.45,-0.44,9.74,-0.1,0.0,-0.01,9.76,0.11,-0.51,-0.37,9.72,-0.11,0.01,-0.01,-2.6,-2.63,129550.0,0.0
-0.56,-0.38,9.65,-0.11,0.01,-0.01,9.68,0.11,-0.5,-0.39,9.73,-0.11,0.0,-0.01,-2.23,-3.29,129754.0,0.0
-0.53,-0.46,9.78,-0.1,0.0,-0.01,9.81,0.11,-0.51,-0.39,9.71,-0.11,0.01,-0.01,-2.69,-3.08,129958.0,0.0
-0.52,-0.37,9.81,-0.11,0.01,-0.01,9.83,0.11,-0.51,-0.4,9.73,-0.11,0.0,-0.01,-2.17,-3.06,130162.0,0.0
-0.47,-0.34,9.64,-0.1,0.0,-0.01,9.65,0.1,-0.52,-0.39,9.74,-0.11,0.01,-0.01,-1.99,-2.82,130366.0,0.0
-0.5,-0.36,9.7,-0.1,0.0,-0.01,9.72,0.11,-0.51,-0.38,9.72,-0.1,0.0,-0.01,-2.12,-2.92,130570.0,0.0
-0.49,-0.34,9.78,-0.11,0.01,-0.01,9.8,0.11,-0.51,-0.38,9.72,-0.1,0.0,-0.01,-2.02,-2.89,130774.0,0.0
-0.56,-0.39,9.66,-0.11,0.01,-0.01,9.69,0.11,-0.5,-0.37,9.73,-0.11,0.0,-0.01,-2.33,-3.3,130978.0,0.0
-0.49,-0.33,9.71,-0.11,0.01,-0.01,9.73,0.11,-0.51,-0.38,9.72,-0.11,0.01,-0.01,-1.95,-2.91,131182.0,0.0
-0.49,-0.38,9.67,-0.1,0.0,-0.01,9.7,0.1,-0.51,-0.37,9.72,-0.11,0.01,-0.01,-2.27,-2.92,131386.0,0.0
-0.49,-0.4,9.72,-0.1,0.0,-0.01,9.74,0.1,-0.51,-0.37,9.71,-0.1,0.0,-0.01,-2.38,-2.9,131590.0,0.0
-0.56,-0.37,9.78,-0.1,0.01,-0.01,9.8,0.1,-0.5,-0.38,9.71,-0.1,0.0,-0.01,-2.19,-3.28,131794.0,0.0
-0.5,-0.38,9.81,-0.1,0.01,-0.01,9.83,0.1,-0.52,-0.38,9.72,-0.1,0.0,-0.01,-2.19,-2.92,131998.0,0.0
-0.51,-0.41,9.7,-0.1,0.0,-0.01,9.72,0.1,-0.51,-0.38,9.74,-0.1,0.01,-0.01,-2.43,-2.99,132202.0,0.0
-0.54,-0.41,9.74,-0.1,0.01,-0.01,9.77,0.1,-0.51,-0.38,9.73,-0.1,0.0,-0.01,-2.39,-3.16,132406.0,0.0
-0.52,-0.43,9.69,-0.1,0.0,-0.01,9.71,0.1,-0.52,-0.39,9.74,-0.1,0.01,-0.01,-2.52,-3.1,132610.0,0.0
-0.57,-0.36,9.65,-0.11,0.01,-0.01,9.67,0.11,-0.52,-0.4,9.73,-0.1,0.0,-0.01,-2.13,-3.41,132814.0,0.0
-0.44,-0.34,9.69,-0.1,0.0,-0.01,9.71,0.1,-0.53,-0.39,9.71,-0.1,0.01,-0.01,-2.02,-2.6,133018.0,0.0
-0.48,-0.36,9.67,-0.1,0.01,-0.01,9.69,0.1,-0.51,-0.38,9.71,-0.1,0.01,-0.01,-2.14,-2.85,133222.0,0.0
-0.53,-0.43,9.74,-0.1,0.01,-0.01,9.76,0.11,-0.51,-0.38,9.7,-0.1,0.01,-0.01,-2.52,-3.12,133426.0,0.0
-0.5,-0.39,9.76,-0.1,0.0,-0.01,9.78,0.1,-0.51,-0.39,9.71,-0.1,0.01,-0.01,-2.3,-2.94,133630.0,0.0
-0.4,-0.41,9.7,-0.11,0.01,-0.01,9.72,0.11,-0.51,-0.39,9.72,-0.1,0.0,-0.01,-2.44,-2.39,133834.0,0.0
-0.55,-0.39,9.72,-0.1,0.0,-0.01,9.75,0.11,-0.49,-0.39,9.72,-0.1,0.01,-0.01,-2.3,-3.26,134038.0,0.0
-0.46,-0.45,9.68,-0.1,0.0,-0.01,9.7,0.1,-0.5,-0.39,9.72,-0.1,0.0,-0.01,-2.65,-2.75,134242.0,0.0
-0.52,-0.38,9.76,-0.1,0.0,-0.01,9.78,0.1,-0.49,-0.4,9.71,-0.1,0.0,-0.01,-2.25,-3.05,134446.0,0.0
-0.45,-0.42,9.69,-0.1,0.01,-0.01,9.71,0.1,-0.5,-0.4,9.72,-0.1,0.0,-0.01,-2.5,-2.65,134650.0,0.0
-0.49,-0.38,9.74,-0.1,0.0,-0.01,9.76,0.11,-0.49,-0.4,9.71,-0.1,0.0,-0.01,-2.21,-2.9,134854.0,0.0
-0.62,-0.42,9.72,-0.1,0.01,-0.01,9.75,0.1,-0.49,-0.4,9.72,-0.1,0.0,-0.01,-2.47,-3.62,135058.0,0.0
-0.51,-0.39,9.76,-0.1,0.0,-0.01,9.78,0.1,-0.51,-0.4,9.72,-0.1,0.0,-0.01,-2.29,-3.02,135262.0,0.0
-0.52,-0.36,9.7,-0.11,0.0,-0.01,9.72,0.11,-0.51,-0.4,9.73,-0.1,0.0,-0.01,-2.12,-3.05,135466.0,0.0
-0.45,-0.39,9.81,-0.1,0.0,-0.01,9.83,0.1,-0.52,-0.39,9.72,-0.1,0.0,-0.01,-2.26,-2.63,135670.0,0.0
-0.49,-0.35,9.71,-0.1,0.01,-0.01,9.72,0.11,-0.5,-0.39,9.74,-0.1,0.0,-0.01,-2.08,-2.87,135874.0,0.0
-0.52,-0.42,9.75,-0.1,0.0,-0.01,9.77,0.1,-0.5,-0.38,9.73,-0.1,0.0,-0.01,-2.46,-3.04,136078.0,0.0
-0.49,-0.34,9.68,-0.1,0.0,-0.01,9.7,0.1,-0.5,-0.39,9.74,-0.1,0.0,-0.01,-1.98,-2.92,136282.0,0.0
-0.46,-0.42,9.74,-0.1,0.01,-0.01,9.76,0.11,-0.5,-0.38,9.73,-0.1,0.0,-0.01,-2.46,-2.72,136486.0,0.0
-0.52,-0.4,9.71,-0.1,0.0,-0.01,9.73,0.11,-0.49,-0.39,9.73,-0.1,0.0,-0.01,-2.39,-3.08,136690.0,0.0
-0.5,-0.4,9.75,-0.11,0.01,-0.01,9.77,0.11,-0.5,-0.39,9.72,-0.1,0.0,-0.01,-2.36,-2.95,136894.0,0.0
-0.48,-0.34,9.64,-0.11,0.0,-0.01,9.66,0.11,-0.5,-0.39,9.73,-0.1,0.0,-0.01,-2.05,-2.83,137098.0,0.0
-0.5,-0.42,9.64,-0.11,0.0,-0.01,9.66,0.11,-0.49,-0.38,9.71,-0.1,0.0,-0.01,-2.49,-2.96,137302.0,0.0
-0.46,-0.36,9.69,-0.1,0.0,-0.01,9.71,0.1,-0.5,-0.39,9.7,-0.11,0.0,-0.01,-2.11,-2.74,137506.0,0.0
-0.44,-0.47,9.65,-0.1,0.01,-0.01,9.67,0.1,-0.49,-0.38,9.7,-0.1,0.0,-0.01,-2.78,-2.61,137710.0,0.0
-0.47,-0.37,9.7,-0.11,0.0,-0.01,9.72,0.11,-0.48,-0.4,9.69,-0.1,0.0,-0.01,-2.18,-2.77,137914.0,0.0
-0.44,-0.38,9.8,-0.1,0.0,-0.01,9.82,0.1,-0.48,-0.39,9.69,-0.1,0.0,-0.01,-2.24,-2.55,138118.0,0.0
-0.5,-0.38,9.77,-0.1,0.0,-0.01,9.79,0.1,-0.47,-0.39,9.71,-0.1,0.0,-0.01,-2.22,-2.95,138322.0,0.0
-0.57,-0.4,9.71,-0.1,0.01,-0.01,9.74,0.1,-0.48,-0.39,9.72,-0.1,0.0,-0.01,-2.34,-3.37,138526.0,0.0
-0.46,-0.41,9.79,-0.1,0.0,-0.01,9.81,0.1,-0.5,-0.39,9.72,-0.1,0.0,-0.01,-2.41,-2.67,138730.0,0.0
-0.45,-0.37,9.74,-0.1,0.01,-0.01,9.76,0.1,-0.49,-0.4,9.74,-0.1,0.0,-0.01,-2.15,-2.63,138934.0,0.0
-0.5,-0.38,9.79,-0.1,0.01,-0.01,9.81,0.11,-0.48,-0.39,9.74,-0.1,0.0,-0.01,-2.21,-2.94,139138.0,0.0
-0.58,-0.44,9.71,-0.1,0.0,-0.01,9.74,0.1,-0.48,-0.39,9.75,-0.1,0.0,-0.01,-2.6,-3.43,139342.0,0.0
-0.43,-0.44,9.67,-0.1,0.01,-0.01,9.69,0.1,-0.5,-0.4,9.74,-0.1,0.0,-0.01,-2.61,-2.57,139546.0,0.0
-0.4,-0.42,9.72,-0.1,0.0,-0.01,9.74,0.1,-0.49,-0.41,9.73,-0.1,0.0,-0.01,-2.47,-2.34,139750.0,0.0
-0.5,-0.35,9.78,-0.1,0.01,-0.01,9.8,0.1,-0.47,-0.41,9.73,-0.1,0.0,-0.01,-2.05,-2.9,139954.0,0.0
-0.55,-0.41,9.84,-0.11,0.0,-0.01,9.86,0.11,-0.48,-0.4,9.74,-0.1,0.01,-0.01,-2.4,-3.2,140158.0,0.0
-0.54,-0.37,9.73,-0.1,0.01,-0.01,9.75,0.11,-0.49,-0.4,9.76,-0.1,0.0,-0.01,-2.2,-3.16,140362.0,0.0
-0.4,-0.38,9.67,-0.1,0.0,-0.01,9.68,0.11,-0.5,-0.39,9.75,-0.1,0.0,-0.01,-2.26,-2.37,140566.0,0.0
-0.51,-0.42,9.67,-0.11,0.0,-0.01,9.69,0.11,-0.48,-0.39,9.73,-0.1,0.0,-0.01,-2.47,-3.03,140770.0,0.0
-0.54,-0.46,9.81,-0.1,0.0,-0.01,9.84,0.11,-0.49,-0.4,9.72,-0.1,0.0,-0.01,-2.68,-3.17,140974.0,0.0
-0.45,-0.34,9.72,-0.11,0.0,-0.01,9.73,0.11,-0.5,-0.41,9.74,-0.1,0.0,-0.01,-1.98,-2.65,141178.0,0.0
-0.55,-0.37,9.65,-0.11,0.01,-0.01,9.68,0.11,-0.49,-0.39,9.73,-0.1,0.0,-0.01,-2.2,-3.26,141382.0,0.0
-0.44,-0.39,9.73,-0.1,0.0,-0.01,9.75,0.11,-0.5,-0.39,9.72,-0.11,0.0,-0.01,-2.27,-2.61,141586.0,0.0
-0.55,-0.41,9.76,-0.11,0.01,-0.01,9.78,0.11,-0.49,-0.39,9.72,-0.11,0.0,-0.01,-2.4,-3.2,141790.0,0.0
-0.45,-0.33,9.77,-0.1,0.0,-0.01,9.78,0.1,-0.5,-0.39,9.73,-0.11,0.0,-0.01,-1.94,-2.62,141994.0,0.0
-0.51,-0.37,9.63,-0.1,0.01,-0.01,9.65,0.11,-0.49,-0.38,9.74,-0.11,0.0,-0.01,-2.21,-3.04,142198.0,0.0
-0.48,-0.38,9.76,-0.1,0.0,-0.01,9.78,0.1,-0.49,-0.38,9.71,-0.11,0.0,-0.01,-2.23,-2.79,142402.0,0.0
-0.59,-0.32,9.64,-0.11,0.0,-0.01,9.67,0.11,-0.49,-0.38,9.72,-0.1,0.0,-0.01,-1.92,-3.48,142606.0,0.0
-0.49,-0.41,9.7,-0.1,0.0,-0.01,9.72,0.1,-0.51,-0.37,9.71,-0.1,0.0,-0.01,-2.45,-2.91,142810.0,0.0
-0.51,-0.34,9.75,-0.11,0.0,-0.01,9.77,0.11,-0.51,-0.38,9.71,-0.1,0.0,-0.01,-2.03,-3.01,143014.0,0.0
-0.39,-0.39,9.75,-0.1,0.01,-0.01,9.77,0.1,-0.51,-0.37,9.71,-0.11,0.0,-0.01,-2.31,-2.28,143218.0,0.0
-0.56,-0.39,9.73,-0.11,0.0,-0.01,9.75,0.11,-0.48,-0.38,9.72,-0.1,0.0,-0.01,-2.28,-3.3,143422.0,0.0
-0.55,-0.47,9.75,-0.1,0.01,-0.01,9.78,0.11,-0.5,-0.38,9.72,-0.11,0.0,-0.01,-2.74,-3.2,143626.0,0.0
-0.43,-0.38,9.76,-0.1,0.0,-0.01,9.77,0.1,-0.51,-0.4,9.73,-0.11,0.0,-0.01,-2.21,-2.54,143830.0,0.0
-0.51,-0.36,9.7,-0.11,0.01,-0.01,9.72,0.11,-0.49,-0.39,9.73,-0.1,0.0,-0.01,-2.15,-3.02,144034.0,0.0
-0.55,-0.4,9.76,-0.1,0.0,-0.01,9.79,0.1,-0.5,-0.39,9.73,-0.1,0.0,-0.01,-2.37,-3.24,144238.0,0.0
-0.5,-0.33,9.64,-0.1,0.01,-0.01,9.66,0.1,-0.51,-0.39,9.73,-0.1,0.0,-0.01,-1.98,-2.97,144442.0,0.0
-0.45,-0.39,9.79,-0.1,0.0,-0.01,9.81,0.1,-0.51,-0.38,9.72,-0.1,0.0,-0.01,-2.3,-2.65,144646.0,0.0
-0.5,-0.39,9.7,-0.1,0.0,-0.01,9.72,0.1,-0.5,-0.38,9.73,-0.1,0.0,-0.01,-2.28,-2.97,144850.0,0.0
-0.5,-0.44,9.77,-0.11,0.0,-0.01,9.79,0.11,-0.5,-0.38,9.72,-0.1,0.0,-0.01,-2.55,-2.92,145054.0,0.0
-0.48,-0.36,9.7,-0.1,0.0,-0.01,9.72,0.1,-0.5,-0.39,9.73,-0.1,0.0,-0.01,-2.15,-2.84,145258.0,0.0
-0.48,-0.39,9.69,-0.1,0.0,-0.01,9.71,0.1,-0.49,-0.39,9.73,-0.1,0.0,-0.01,-2.32,-2.84,145462.0,0.0
-0.49,-0.3,9.67,-0.1,0.0,-0.01,9.68,0.1,-0.49,-0.39,9.72,-0.1,0.0,-0.01,-1.8,-2.89,145666.0,0.0
-0.45,-0.39,9.73,-0.1,0.0,-0.01,9.75,0.1,-0.49,-0.37,9.71,-0.1,0.0,-0.01,-2.28,-2.62,145870.0,0.0
-0.52,-0.4,9.69,-0.11,0.0,-0.01,9.71,0.11,-0.48,-0.37,9.71,-0.1,0.0,-0.01,-2.35,-3.08,146074.0,0.0
-0.49,-0.37,9.65,-0.1,0.01,-0.01,9.67,0.1,-0.49,-0.38,9.71,-0.1,0.0,-0.01,-2.2,-2.91,146278.0,0.0
-0.44,-0.32,9.65,-0.1,0.0,-0.01,9.66,0.1,-0.49,-0.38,9.7,-0.1,0.0,-0.01,-1.9,-2.63,146482.0,0.0
-0.44,-0.35,9.72,-0.1,0.0,-0.01,9.73,0.1,-0.48,-0.37,9.69,-0.1,0.0,-0.01,-2.09,-2.61,146686.0,0.0
-0.51,-0.38,9.69,-0.1,0.0,-0.01,9.71,0.1,-0.47,-0.36,9.69,-0.1,0.0,-0.01,-2.24,-2.98,146890.0,0.0
-0.53,-0.32,9.71,-0.11,0.01,-0.01,9.73,0.11,-0.48,-0.37,9.69,-0.1,0.0,-0.01,-1.86,-3.13,147094.0,0.0
-0.46,-0.35,9.73,-0.1,0.0,-0.01,9.75,0.1,-0.49,-0.36,9.7,-0.1,0.0,-0.01,-2.09,-2.7,147298.0,0.0
-0.51,-0.35,9.69,-0.11,0.0,-0.01,9.71,0.11,-0.48,-0.36,9.7,-0.1,0.0,-0.01,-2.09,-3.03,147502.0,0.0
-0.45,-0.42,9.65,-0.1,0.01,-0.01,9.67,0.1,-0.49,-0.36,9.7,-0.1,0.0,-0.01,-2.5,-2.68,147706.0,0.0
-0.5,-0.35,9.82,-0.1,0.0,-0.01,9.84,0.11,-0.48,-0.37,9.69,-0.1,0.0,-0.01,-2.05,-2.9,147910.0,0.0
-0.41,-0.44,9.74,-0.11,0.0,-0.01,9.76,0.11,-0.49,-0.37,9.72,-0.1,0.0,-0.01,-2.59,-2.41,148114.0,0.0
-0.48,-0.38,9.7,-0.1,0.01,-0.01,9.72,0.1,-0.47,-0.38,9.72,-0.1,0.0,-0.01,-2.25,-2.84,148318.0,0.0
-0.44,-0.44,9.79,-0.1,0.01,-0.01,9.81,0.1,-0.47,-0.38,9.72,-0.1,0.0,-0.01,-2.58,-2.59,148522.0,0.0
-0.5,-0.37,9.71,-0.11,0.0,-0.01,9.73,0.11,-0.47,-0.39,9.73,-0.1,0.0,-0.01,-2.17,-2.96,148726.0,0.0
-0.45,-0.39,9.83,-0.1,0.01,-0.01,9.85,0.1,-0.47,-0.39,9.73,-0.1,0.0,-0.01,-2.26,-2.65,148930.0,0.0
-0.49,-0.4,9.77,-0.1,0.01,-0.01,9.79,0.1,-0.47,-0.39,9.75,-0.1,0.01,-0.01,-2.37,-2.89,149134.0,0.0
-0.47,-0.38,9.72,-0.11,0.01,-0.01,9.74,0.11,-0.47,-0.39,9.75,-0.1,0.01,-0.01,-2.23,-2.79,149338.0,0.0
-0.48,-0.38,9.79,-0.1,0.0,-0.01,9.81,0.1,-0.47,-0.39,9.75,-0.1,0.01,-0.01,-2.23,-2.83,149542.0,0.0
-0.51,-0.36,9.84,-0.11,0.01,-0.01,9.86,0.11,-0.48,-0.39,9.75,-0.1,0.0,-0.01,-2.09,-2.98,149746.0,0.0
-0.5,-0.32,9.67,-0.1,0.0,-0.01,9.69,0.1,-0.48,-0.38,9.77,-0.1,0.01,-0.01,-1.87,-2.93,149950.0,0.0
-0.54,-0.34,9.58,-0.11,0.01,-0.01,9.61,0.11,-0.49,-0.37,9.75,-0.1,0.0,-0.01,-2.03,-3.23,150154.0,0.0
-0.51,-0.39,9.76,-0.1,0.0,-0.01,9.78,0.1,-0.5,-0.36,9.72,-0.1,0.01,-0.01,-2.29,-2.98,150358.0,0.0
-0.49,-0.34,9.69,-0.11,0.01,-0.01,9.71,0.11,-0.5,-0.37,9.73,-0.1,0.0,-0.01,-1.99,-2.9,150562.0,0.0
-0.48,-0.36,9.73,-0.11,0.0,-0.01,9.75,0.11,-0.5,-0.36,9.72,-0.11,0.01,-0.01,-2.14,-2.82,150766.0,0.0
-0.49,-0.32,9.84,-0.11,0.0,-0.01,9.86,0.11,-0.49,-0.36,9.72,-0.11,0.0,-0.01,-1.88,-2.87,150970.0,0.0
-0.52,-0.36,9.77,-0.11,0.0,-0.01,9.79,0.11,-0.49,-0.35,9.75,-0.11,0.0,-0.01,-2.1,-3.06,151174.0,0.0
-0.56,-0.45,9.52,-0.1,0.01,-0.01,9.55,0.11,-0.5,-0.36,9.75,-0.11,0.0,-0.01,-2.68,-3.37,151378.0,0.0
-0.49,-0.42,9.7,-0.11,0.01,-0.01,9.72,0.11,-0.51,-0.37,9.71,-0.11,0.0,-0.01,-2.46,-2.9,151582.0,0.0
-0.5,-0.34,9.74,-0.1,0.0,-0.01,9.76,0.1,-0.51,-0.38,9.7,-0.11,0.0,-0.01,-1.97,-2.96,151786.0,0.0
-0.47,-0.37,9.83,-0.05,-0.08,-0.01,9.85,0.1,-0.51,-0.37,9.71,-0.11,0.0,-0.01,-2.16,-2.73,151990.0,0.0
-0.52,-0.25,9.73,-0.06,-0.03,-0.01,9.75,0.07,-0.5,-0.37,9.74,-0.09,-0.01,-0.01,-1.49,-3.07,152194.0,0.0
0.18,-1.44,9.67,-0.36,0.19,-1.84,9.78,1.88,-0.5,-0.35,9.73,-0.09,-0.02,-0.01,-8.48,1.08,152398.0,0.0
1.83,-3.09,12.71,-0.06,-0.75,-0.61,13.21,0.97,-0.37,-0.57,9.72,-0.14,0.02,-0.38,-13.64,8.2,152602.0,0.0
0.7,-0.79,10.0,-0.69,0.3,-1.26,10.05,1.46,0.07,-1.07,10.32,-0.13,-0.13,-0.42,-4.52,4.01,214.0,0.0
2.8,-2.22,9.25,-0.15,2.22,-2.61,9.91,3.43,0.2,-1.01,10.26,-0.24,-0.05,-0.59,-13.5,16.83,418.0,0.0
-0.81,-2.67,9.24,0.07,2.89,-2.76,9.65,4.0,0.72,-1.26,10.05,-0.22,0.41,-0.99,-16.12,-5.04,622.0,0.0
-5.06,-2.6,6.64,-0.61,1.91,-2.15,8.75,2.94,0.41,-1.54,9.89,-0.16,0.9,-1.35,-21.34,-37.3,826.0,0.0
-4.03,-3.99,3.2,-0.34,0.6,-0.07,6.52,0.69,-0.68,-1.75,9.24,-0.25,1.11,-1.51,-51.25,-51.53,1030.0,0.0
-4.07,-5.11,5.01,-0.26,-0.52,-1.6,8.24,1.7,-1.35,-2.2,8.03,-0.27,1.0,-1.22,-45.6,-39.11,1234.0,0.0
-2.27,-8.28,3.25,-0.13,-0.56,0.13,9.18,0.59,-1.9,-2.78,7.43,-0.27,0.7,-1.3,-68.59,-34.96,1438.0,0.0
-1.73,-6.78,5.23,0.5,0.31,-0.08,8.74,0.59,-1.97,-3.88,6.59,-0.24,0.45,-1.01,-52.35,-18.26,1642.0,0.0
-0.9,-9.14,19.61,-0.22,0.73,-1.62,21.66,1.79,-1.92,-4.46,6.32,-0.09,0.42,-0.82,-24.99,-2.62,1846.0,0.0
-2.84,-6.49,5.34,0.73,0.82,-0.16,8.87,1.11,-1.72,-5.4,8.98,-0.12,0.48,-0.98,-50.55,-28.01,2050.0,0.0
-0.84,-6.96,5.59,-0.84,0.25,-0.53,8.97,1.03,-1.94,-5.62,8.25,0.05,0.55,-0.82,-51.26,-8.55,2254.0,0.0
-1.71,-6.89,5.68,-0.11,-1.5,0.82,9.09,1.71,-1.72,-5.89,7.72,-0.13,0.49,-0.76,-50.5,-16.76,2458.0,0.0
-2.33,-6.43,6.33,0.11,-0.67,0.01,9.32,0.68,-1.72,-6.09,7.31,-0.12,0.09,-0.45,-45.45,-20.18,2662.0,0.0
-1.83,-6.69,6.68,-0.19,0.31,-0.3,9.63,0.47,-1.84,-6.15,7.11,-0.08,-0.06,-0.35,-45.06,-15.36,2866.0,0.0
-2.55,-6.29,6.97,0.64,-0.79,-0.02,9.73,1.02,-1.84,-6.26,7.03,-0.1,0.01,-0.34,-42.07,-20.05,3070.0,0.0
-2.03,-5.88,8.25,-0.01,0.39,-0.4,10.34,0.56,-1.98,-6.27,7.02,0.05,-0.15,-0.28,-35.49,-13.84,3274.0,0.0
-1.89,-5.8,6.45,-0.08,-0.04,-0.03,8.88,0.1,-1.99,-6.19,7.26,0.04,-0.04,-0.3,-41.97,-16.34,3478.0,0.0
2.02,-6.89,7.56,-0.52,4.37,0.82,10.42,4.47,-1.97,-6.11,7.1,0.01,-0.04,-0.25,-42.33,14.97,3682.0,0.0
-1.51,-6.2,6.64,-0.17,1.25,0.79,9.21,1.49,-1.17,-6.27,7.19,-0.09,0.84,-0.03,-43.06,-12.78,3886.0,0.0
-3.57,-6.34,6.52,-0.15,1.37,-0.09,9.78,1.38,-1.24,-6.25,7.08,-0.11,0.92,0.13,-44.19,-28.72,4090.0,0.0
-3.25,-7.75,6.85,-0.17,-0.79,-0.55,10.84,0.98,-1.71,-6.27,6.97,-0.12,1.01,0.09,-48.54,-25.41,4294.0,0.0
-2.25,-7.22,6.6,-0.07,-0.52,-0.77,10.04,0.94,-2.02,-6.57,6.95,-0.13,0.65,-0.04,-47.6,-18.86,4498.0,0.0
-0.76,-6.99,9.21,0.06,-0.86,0.09,11.58,0.86,-2.06,-6.7,6.88,-0.12,0.42,-0.19,-37.21,-4.74,4702.0,0.0
-1.12,-6.31,7.16,0.22,0.17,-0.06,9.61,0.29,-1.8,-6.76,7.34,-0.08,0.16,-0.13,-41.4,-8.91,4906.0,0.0
-0.15,-5.52,8.15,0.21,0.14,-0.11,9.84,0.27,-1.67,-6.67,7.31,-0.02,0.16,-0.12,-34.14,-1.04,5110.0,1.0
-1.94,-4.58,8.17,0.06,-0.38,-0.34,9.57,0.51,-1.36,-6.44,7.47,0.03,0.16,-0.12,-29.26,-13.38,7314.0,1.0
-1.93,-4.53,8.54,0.02,0.23,-0.38,9.86,0.44,-1.48,-6.07,7.61,0.03,0.05,-0.16,-27.97,-12.77,7518.0,0.0
-2.0,-4.36,8.57,-0.09,0.05,-0.29,9.83,0.31,-1.57,-5.76,7.8,0.03,0.09,-0.2,-26.98,-13.13,7722.0,0.0
-1.93,-4.29,8.08,-0.16,0.13,0.0,9.35,0.21,-1.66,-5.48,7.95,0.01,0.08,-0.22,-27.97,-13.47,7926.0,0.0
-1.65,-4.82,8.73,-0.15,0.06,-0.02,10.11,0.16,-1.71,-5.24,7.98,-0.03,0.09,-0.18,-28.92,-10.73,8130.0,0.0
-1.94,-4.77,8.29,-0.12,0.24,0.0,9.76,0.27,-1.7,-5.16,8.13,-0.05,0.08,-0.15,-29.9,-13.15,8334.0,0.0
-1.49,-4.98,8.78,-0.09,-0.12,-0.12,10.2,0.19,-1.75,-5.08,8.16,-0.07,0.11,-0.12,-29.53,-9.61,8538.0,0.0
-1.6,-4.44,8.77,-0.05,0.13,-0.06,9.96,0.15,-1.7,-5.06,8.29,-0.07,0.07,-0.12,-26.85,-10.31,8742.0,0.0
-2.31,-3.98,7.18,-0.12,0.22,0.2,8.53,0.32,-1.68,-4.94,8.38,-0.07,0.08,-0.11,-28.97,-17.81,8946.0,0.0
-3.04,-4.38,8.8,-0.13,-0.05,-0.05,10.29,0.15,-1.8,-4.74,8.14,-0.08,0.11,-0.05,-26.48,-19.05,9150.0,0.0
-2.3,-4.56,8.01,-0.15,0.03,0.15,9.5,0.22,-2.05,-4.67,8.27,-0.09,0.08,-0.05,-29.62,-15.99,9354.0,0.0
-2.74,-4.33,8.4,-0.18,0.09,0.17,9.84,0.26,-2.1,-4.65,8.22,-0.1,0.07,-0.01,-27.26,-18.08,9558.0,0.0
-2.14,-4.5,8.4,-0.05,-0.17,0.02,9.77,0.18,-2.23,-4.58,8.26,-0.12,0.07,0.03,-28.19,-14.28,9762.0,0.0
-2.23,-4.28,8.18,-0.07,-0.29,-0.02,9.49,0.3,-2.21,-4.57,8.29,-0.1,0.02,0.03,-27.64,-15.23,9966.0,0.0
-1.44,-4.19,8.37,-0.06,-0.57,0.0,9.47,0.58,-2.21,-4.51,8.26,-0.1,-0.04,0.02,-26.58,-9.77,10170.0,0.0
-1.43,-4.14,8.53,-0.1,-0.01,0.02,9.59,0.1,-2.06,-4.45,8.28,-0.09,-0.15,0.01,-25.89,-9.51,10374.0,0.0
-1.52,-4.22,8.49,-0.06,-0.03,0.0,9.6,0.07,-1.93,-4.39,8.33,-0.09,-0.12,0.01,-26.43,-10.16,10578.0,0.0
-1.27,-4.18,8.64,-0.14,0.14,-0.01,9.68,0.2,-1.85,-4.35,8.36,-0.09,-0.1,0.01,-25.83,-8.39,10782.0,0.0
-1.19,-4.49,8.34,-0.14,-0.03,-0.2,9.55,0.25,-1.73,-4.32,8.42,-0.1,-0.05,0.01,-28.29,-8.12,10986.0,0.0
-1.76,-4.51,8.5,-0.11,0.01,-0.01,9.78,0.11,-1.63,-4.35,8.4,-0.1,-0.05,-0.03,-27.92,-11.69,11190.0,0.0
-1.64,-4.29,8.3,-0.15,0.1,-0.09,9.49,0.2,-1.65,-4.38,8.42,-0.11,-0.04,-0.03,-27.34,-11.2,11394.0,0.0
-1.89,-4.74,7.93,-0.16,0.54,-0.18,9.43,0.59,-1.65,-4.36,8.4,-0.11,-0.01,-0.04,-30.87,-13.44,11598.0,0.0
-2.01,-4.45,8.72,0.07,0.01,-0.02,10.0,0.07,-1.7,-4.44,8.3,-0.12,0.1,-0.07,-27.05,-12.99,11802.0,0.0
-3.55,-4.7,7.3,-0.26,1.3,0.06,9.38,1.32,-1.76,-4.44,8.39,-0.09,0.08,-0.06,-32.82,-25.94,12006.0,0.0
-2.76,-4.22,6.48,-0.2,0.35,-0.45,8.22,0.61,-2.12,-4.49,8.17,-0.12,0.33,-0.03,-33.08,-23.06,12210.0,0.0
-2.76,-4.77,7.79,-0.18,0.36,-0.16,9.54,0.43,-2.25,-4.44,7.83,-0.14,0.33,-0.12,-31.51,-19.52,12414.0,0.0
-3.24,-5.44,7.05,-0.2,0.23,0.04,9.48,0.3,-2.35,-4.51,7.82,-0.14,0.34,-0.13,-37.65,-24.67,12618.0,0.0
-4.1,-5.41,7.17,-0.1,-0.02,-0.09,9.88,0.14,-2.53,-4.69,7.67,-0.15,0.32,-0.09,-37.04,-29.77,12822.0,0.0
-4.2,-5.07,6.51,-0.1,-0.07,0.09,9.26,0.15,-2.84,-4.84,7.57,-0.14,0.25,-0.09,-37.95,-32.84,13026.0,0.0
-3.49,-5.48,7.06,-0.14,-0.26,-0.02,9.59,0.29,-3.11,-4.88,7.36,-0.14,0.18,-0.06,-37.82,-26.33,13230.0,0.0
-3.33,-5.41,7.12,-0.09,-0.05,-0.01,9.54,0.1,-3.19,-5.0,7.3,-0.14,0.1,-0.05,-37.24,-25.03,13434.0,0.0
-4.93,-5.14,6.17,-0.05,0.35,-0.05,9.42,0.36,-3.22,-5.09,7.26,-0.13,0.07,-0.04,-39.77,-38.61,13638.0,0.0
-2.93,-4.54,7.44,0.12,0.38,0.7,9.19,0.81,-3.56,-5.1,7.04,-0.11,0.12,-0.04,-31.39,-21.52,13842.0,0.0
-3.85,-7.21,7.14,-0.26,-0.01,0.17,10.85,0.32,-3.43,-4.98,7.12,-0.06,0.17,0.11,-45.28,-28.37,14046.0,0.0
-3.91,-4.08,7.15,-0.1,-0.11,-0.16,9.11,0.22,-3.52,-5.43,7.13,-0.1,0.14,0.12,-29.71,-28.7,14250.0,0.0
-4.79,-6.13,5.9,0.15,-0.83,0.05,9.76,0.85,-3.6,-5.16,7.13,-0.1,0.09,0.06,-46.07,-39.05,14454.0,0.0
-1.69,-3.18,6.31,-0.26,0.31,0.27,7.26,0.49,-3.84,-5.35,6.88,-0.05,-0.1,0.06,-26.75,-15.0,14658.0,0.0
-4.14,-4.83,6.32,-0.07,0.17,-0.04,8.96,0.19,-3.41,-4.92,6.77,-0.09,-0.02,0.1,-37.39,-33.23,14862.0,0.0
-4.06,-4.44,6.51,-0.06,-0.45,-0.55,8.86,0.71,-3.55,-4.9,6.68,-0.09,0.02,0.08,-34.26,-31.91,15066.0,0.0
-3.81,-5.27,6.8,-0.1,0.08,0.06,9.41,0.14,-3.65,-4.81,6.65,-0.08,-0.07,-0.05,-37.76,-29.27,15270.0,0.0
-4.49,-5.59,6.51,-0.19,0.35,0.19,9.69,0.44,-3.69,-4.9,6.68,-0.09,-0.04,-0.03,-40.67,-34.59,15474.0,0.0
-4.6,-5.2,6.35,-0.09,0.02,-0.04,9.41,0.1,-3.85,-5.04,6.64,-0.11,0.04,0.02,-39.35,-35.94,15678.0,0.0
-4.74,-4.98,6.11,-0.05,-0.02,-0.08,9.2,0.1,-4.0,-5.07,6.58,-0.1,0.03,0.01,-39.18,-37.79,15882.0,0.0
-4.62,-5.07,6.25,-0.11,-0.16,0.02,9.29,0.2,-4.15,-5.05,6.49,-0.09,0.02,-0.01,-39.05,-36.47,16086.0,0.0
-4.37,-4.65,6.25,-0.14,-0.2,0.24,8.93,0.34,-4.24,-5.06,6.44,-0.1,-0.01,-0.01,-36.68,-35.0,16290.0,0.0
-4.39,-4.58,6.49,-0.25,-0.02,0.01,9.08,0.25,-4.27,-4.98,6.4,-0.1,-0.05,0.04,-35.21,-34.05,16494.0,0.0
-4.97,-5.15,5.84,-0.21,0.08,0.15,9.24,0.27,-4.29,-4.9,6.42,-0.13,-0.04,0.04,-41.4,-40.41,16698.0,0.0
-5.02,-5.37,6.95,-0.16,-0.09,0.26,10.12,0.31,-4.43,-4.95,6.31,-0.15,-0.02,0.06,-37.67,-35.85,16902.0,0.0
-4.8,-4.76,5.82,-0.16,0.05,0.15,8.92,0.22,-4.55,-5.03,6.43,-0.15,-0.03,0.1,-39.26,-39.49,17106.0,0.0
-5.62,-4.62,5.49,-0.1,0.09,0.05,9.11,0.15,-4.6,-4.98,6.31,-0.15,-0.02,0.11,-40.09,-45.65,17310.0,0.0
-5.39,-5.75,6.27,-0.38,0.34,0.22,10.07,0.56,-4.8,-4.91,6.15,-0.14,0.0,0.1,-42.51,-40.67,17514.0,0.0
-5.37,-4.51,5.69,-0.11,0.07,-0.03,9.03,0.13,-4.92,-5.07,6.17,-0.19,0.07,0.12,-38.39,-43.36,17718.0,0.0
-5.61,-5.76,5.16,-0.15,-0.31,-0.08,9.55,0.36,-5.01,-4.96,6.08,-0.17,0.07,0.09,-48.15,-47.43,17922.0,0.0
-6.39,-5.74,5.26,0.21,-0.5,-0.49,10.08,0.74,-5.13,-5.12,5.89,-0.17,0.0,0.06,-47.49,-50.51,18126.0,0.0
-3.9,-4.41,6.09,-0.03,-0.89,-0.08,8.47,0.9,-5.38,-5.24,5.77,-0.09,-0.1,-0.05,-35.94,-32.6,18330.0,0.0
-4.9,-5.37,6.59,-0.11,-0.11,0.09,9.81,0.18,-5.08,-5.08,5.83,-0.08,-0.26,-0.06,-39.17,-36.66,18534.0,0.0
-5.94,-3.99,6.2,-0.01,-0.14,0.09,9.46,0.16,-5.05,-5.14,5.98,-0.09,-0.23,-0.03,-32.78,-43.76,18738.0,0.0
-5.66,-4.76,6.34,-0.05,-0.03,0.01,9.74,0.06,-5.23,-4.91,6.03,-0.07,-0.21,-0.01,-36.91,-41.74,18942.0,0.0
0.2,-4.13,7.89,0.14,-1.62,-0.12,8.91,1.63,-5.31,-4.88,6.09,-0.07,-0.18,0.0,-27.62,1.44,19146.0,0.0
-3.91,-4.42,7.77,0.15,-0.44,0.04,9.76,0.47,-4.21,-4.73,6.45,-0.02,-0.46,-0.03,-29.66,-26.75,19350.0,0.0
-4.31,-3.43,7.11,0.05,-0.3,-0.22,8.99,0.37,-4.15,-4.67,6.71,0.01,-0.46,-0.01,-25.75,-31.24,19554.0,0.0
-4.37,-3.91,7.06,-0.05,0.23,-0.05,9.18,0.24,-4.18,-4.42,6.79,0.02,-0.43,-0.05,-29.0,-31.77,19758.0,0.0
-4.67,-3.99,7.1,-0.1,0.95,-0.09,9.38,0.96,-4.22,-4.32,6.85,0.01,-0.3,-0.05,-29.34,-33.33,19962.0,0.0
-6.72,-4.07,6.34,-0.05,0.91,-0.02,10.1,0.91,-4.31,-4.25,6.9,-0.02,-0.05,-0.06,-32.72,-46.67,20166.0,0.0
-6.62,-4.07,5.21,-0.28,0.54,-0.07,9.36,0.61,-4.79,-4.22,6.78,-0.02,0.14,-0.05,-38.0,-51.78,20370.0,0.0
-6.94,-4.29,4.84,-0.39,-0.17,0.08,9.49,0.43,-5.16,-4.19,6.47,-0.07,0.22,-0.06,-41.55,-55.07,20574.0,0.0
-7.11,-4.67,4.68,-0.22,0.36,0.11,9.71,0.43,-5.51,-4.21,6.14,-0.14,0.15,-0.03,-44.93,-56.63,20778.0,0.0
-6.6,-4.36,4.06,-0.23,0.18,-0.12,8.89,0.32,-5.83,-4.3,5.85,-0.15,0.19,0.0,-47.07,-58.42,20982.0,0.0
-6.7,-4.91,3.02,-0.15,0.4,-0.25,8.84,0.5,-5.99,-4.31,5.49,-0.17,0.19,-0.03,-58.41,-65.72,21186.0,0.0
-6.8,-5.51,3.87,-0.1,-0.58,-0.48,9.57,0.76,-6.13,-4.43,5.0,-0.17,0.23,-0.07,-54.93,-60.37,21390.0,0.0
-3.28,-6.76,6.5,-0.34,-0.48,-0.31,9.93,0.66,-6.26,-4.65,4.77,-0.15,0.07,-0.15,-46.13,-26.78,21594.0,0.0
-5.65,-6.5,4.51,0.13,1.24,-0.04,9.72,1.25,-5.67,-5.07,5.12,-0.19,-0.04,-0.18,-55.25,-51.42,21798.0,0.0
-7.42,-6.39,2.89,0.06,0.47,-0.29,10.21,0.56,-5.66,-5.36,5.0,-0.12,0.21,-0.15,-65.62,-68.68,22002.0,0.0
-6.02,-6.96,4.03,-0.16,0.38,-0.17,10.05,0.44,-6.01,-5.56,4.58,-0.09,0.27,-0.18,-59.94,-56.19,22206.0,0.0
-4.35,-6.4,4.67,-0.17,0.78,0.34,9.04,0.87,-6.01,-5.84,4.47,-0.1,0.29,-0.18,-53.88,-42.92,22410.0,0.0
-4.89,-5.84,5.02,-0.03,-0.45,0.05,9.12,0.46,-5.68,-5.95,4.51,-0.11,0.39,-0.07,-49.35,-44.24,22614.0,0.0
-4.97,-6.35,4.63,-0.05,-0.2,-0.13,9.3,0.24,-5.52,-5.93,4.61,-0.1,0.22,-0.05,-53.89,-47.04,22818.0,0.0
-4.82,-6.2,4.7,-0.06,0.73,-0.25,9.15,0.77,-5.41,-6.02,4.61,-0.09,0.14,-0.07,-52.83,-45.75,23022.0,0.0
-6.32,-5.65,4.99,0.12,-0.33,-0.13,9.83,0.37,-5.29,-6.05,4.63,-0.08,0.25,-0.1,-48.54,-51.74,23226.0,0.0
-3.96,-6.48,5.16,-0.15,0.02,0.12,9.18,0.19,-5.5,-5.97,4.7,-0.04,0.14,-0.11,-51.47,-37.47,23430.0,0.0
-6.0,-5.89,4.37,-0.1,-0.91,-0.1,9.47,0.92,-5.19,-6.07,4.79,-0.06,0.12,-0.06,-53.4,-53.88,23634.0,0.0
-4.91,-5.73,5.98,-0.16,1.82,0.32,9.63,1.86,-5.35,-6.04,4.71,-0.07,-0.09,-0.07,-43.75,-39.39,23838.0,0.0
-4.76,-5.8,3.41,-0.01,1.81,-0.05,8.24,1.81,-5.26,-5.97,4.96,-0.09,0.29,0.01,-59.5,-54.33,24042.0,0.0
-7.67,-5.67,2.52,-0.12,0.5,0.15,9.86,0.53,-5.16,-5.94,4.65,-0.07,0.6,0.0,-66.08,-71.83,24246.0,0.0
-6.24,-5.5,2.86,-0.21,-0.46,-0.01,8.8,0.51,-5.66,-5.89,4.23,-0.08,0.58,0.03,-62.51,-65.38,24450.0,0.0
-6.66,-6.02,3.23,-0.03,-0.02,-0.2,9.54,0.21,-5.78,-5.81,3.95,-0.11,0.37,0.02,-61.78,-64.11,24654.0,0.0
-6.77,-6.01,3.04,-0.07,0.16,-0.24,9.55,0.29,-5.96,-5.85,3.81,-0.09,0.29,-0.02,-63.19,-65.86,24858.0,0.0
-6.13,-6.2,3.26,-0.1,-0.02,-0.04,9.31,0.11,-6.12,-5.88,3.65,-0.09,0.26,-0.07,-62.24,-61.98,25062.0,0.0
-4.83,-6.65,3.39,-0.16,0.77,-0.09,8.89,0.8,-6.12,-5.95,3.58,-0.09,0.21,-0.06,-63.02,-54.97,25266.0,0.0
-3.74,-6.54,4.18,-0.15,-0.59,0.21,8.62,0.64,-5.86,-6.09,3.54,-0.1,0.32,-0.07,-57.43,-41.85,25470.0,0.0
-5.56,-5.29,3.88,0.0,-0.68,-0.1,8.6,0.69,-5.44,-6.18,3.67,-0.11,0.14,-0.01,-53.79,-55.1,25674.0,0.0
-7.19,-7.01,3.3,-0.16,-0.75,-0.06,10.57,0.77,-5.46,-6.0,3.71,-0.09,-0.03,-0.03,-64.79,-65.37,25878.0,0.0
-8.27,-6.3,3.5,-0.07,-0.81,-0.56,10.97,0.98,-5.81,-6.2,3.63,-0.1,-0.17,-0.04,-60.93,-67.07,26082.0,0.0
-8.24,-5.21,1.51,-0.19,0.05,-0.07,9.87,0.21,-6.3,-6.22,3.6,-0.1,-0.3,-0.14,-73.81,-79.6,26286.0,0.0
-9.17,-4.74,1.02,-0.09,-0.47,-0.24,10.37,0.54,-6.69,-6.02,3.18,-0.12,-0.23,-0.13,-77.87,-83.67,26490.0,0.0
-7.93,-4.94,1.8,-0.13,-0.3,0.06,9.52,0.33,-7.19,-5.76,2.75,-0.11,-0.28,-0.15,-69.97,-77.2,26694.0,0.0
-8.3,-4.8,0.8,-0.19,0.08,0.18,9.62,0.27,-7.34,-5.6,2.56,-0.11,-0.28,-0.11,-80.48,-84.46,26898.0,0.0
-8.03,-4.82,1.55,-0.28,0.0,0.15,9.49,0.32,-7.53,-5.44,2.21,-0.13,-0.21,-0.05,-72.13,-79.04,27102.0,0.0
-8.03,-3.97,0.6,-0.24,0.1,0.12,8.97,0.29,-7.63,-5.31,2.08,-0.16,-0.17,-0.01,-81.43,-85.73,27306.0,0.0
-7.71,-3.86,1.11,0.07,0.3,0.38,8.69,0.49,-7.71,-5.05,1.78,-0.17,-0.11,0.02,-73.99,-81.82,27510.0,0.0
-9.39,-3.97,0.41,-0.22,-0.01,-0.06,10.2,0.23,-7.71,-4.81,1.65,-0.13,-0.03,0.09,-84.15,-87.52,27714.0,0.0
-8.83,-3.6,0.39,-0.15,-0.05,0.08,9.55,0.18,-8.04,-4.64,1.4,-0.15,-0.03,0.06,-83.81,-87.47,27918.0,0.0
-8.51,-4.03,1.16,-0.14,-0.03,0.04,9.49,0.15,-8.2,-4.43,1.2,-0.15,-0.03,0.06,-74.0,-82.27,28122.0,0.0
-8.31,-4.09,1.42,-0.19,-0.25,-0.14,9.37,0.34,-8.26,-4.35,1.19,-0.15,-0.03,0.06,-70.81,-80.29,28326.0,0.0
-7.98,-4.06,1.34,0.07,0.77,0.32,9.06,0.84,-8.27,-4.3,1.24,-0.15,-0.07,0.02,-71.77,-80.48,28530.0,0.0
-8.34,-3.75,0.66,-0.15,0.25,-0.02,9.17,0.29,-8.22,-4.25,1.26,-0.11,0.09,0.08,-79.97,-85.45,28734.0,0.0
-8.68,-4.04,0.88,0.14,0.22,-0.25,9.62,0.36,-8.24,-4.15,1.14,-0.12,0.13,0.06,-77.69,-84.21,28938.0,0.0
-8.45,-4.19,1.55,-0.18,-0.46,-0.19,9.55,0.53,-8.33,-4.13,1.09,-0.07,0.14,0.0,-69.63,-79.58,29142.0,0.0
-8.61,-3.65,0.49,-0.18,-0.12,-0.01,9.36,0.22,-8.35,-4.14,1.18,-0.09,0.02,-0.04,-82.33,-86.74,29346.0,0.0
-8.22,-4.11,0.92,-0.12,-0.08,-0.12,9.24,0.19,-8.4,-4.04,1.04,-0.11,-0.01,-0.03,-77.39,-83.62,29550.0,0.0
-7.89,-4.37,1.36,-0.08,0.06,-0.05,9.12,0.11,-8.37,-4.06,1.02,-0.11,-0.02,-0.05,-72.74,-80.24,29754.0,0.0
-8.19,-4.52,1.21,-0.14,-0.27,-0.12,9.43,0.33,-8.27,-4.12,1.09,-0.1,0.0,-0.05,-75.06,-81.62,29958.0,0.0
-9.34,-3.71,2.13,-0.04,-0.23,-0.17,10.27,0.29,-8.26,-4.2,1.11,-0.11,-0.06,-0.06,-60.1,-77.15,30162.0,0.0
-7.26,-4.64,2.04,-0.01,-0.04,0.0,8.85,0.04,-8.47,-4.1,1.31,-0.1,-0.09,-0.09,-66.3,-74.34,30366.0,0.0
-7.56,-4.6,2.25,-0.18,-0.3,-0.08,9.13,0.36,-8.23,-4.21,1.46,-0.08,-0.08,-0.07,-63.9,-73.41,30570.0,0.0
-7.97,-4.83,2.52,-0.2,-0.04,-0.05,9.65,0.21,-8.1,-4.29,1.62,-0.1,-0.12,-0.07,-62.4,-72.43,30774.0,0.0
-8.07,-4.81,2.42,-0.08,-0.19,-0.18,9.7,0.28,-8.07,-4.39,1.8,-0.12,-0.11,-0.07,-63.29,-73.31,30978.0,0.0
-9.41,-4.47,1.98,-0.07,-0.5,-0.21,10.6,0.55,-8.07,-4.48,1.92,-0.11,-0.12,-0.09,-66.12,-78.13,31182.0,0.0
-6.04,-5.74,2.67,-0.02,0.28,0.09,8.75,0.3,-8.34,-4.48,1.93,-0.1,-0.2,-0.11,-65.04,-66.14,31386.0,0.0
-8.06,-4.66,1.85,-0.02,0.51,0.06,9.49,0.52,-7.88,-4.73,2.08,-0.09,-0.1,-0.07,-68.32,-77.05,31590.0,0.0
-8.06,-4.51,2.06,-0.25,0.14,0.0,9.47,0.28,-7.92,-4.72,2.04,-0.07,0.02,-0.05,-65.45,-75.66,31794.0,0.0
-8.13,-4.61,1.98,-0.17,0.16,0.15,9.55,0.27,-7.94,-4.67,2.04,-0.11,0.04,-0.04,-66.72,-76.3,31998.0,0.0
-6.6,-5.05,2.35,-0.12,-0.47,-0.13,8.64,0.5,-7.98,-4.66,2.03,-0.12,0.07,0.0,-65.05,-70.39,32202.0,0.0
-7.71,-4.55,2.16,-0.12,-0.13,-0.09,9.21,0.2,-7.71,-4.74,2.09,-0.12,-0.04,-0.03,-64.54,-74.31,32406.0,0.0
-7.99,-4.64,2.2,-0.23,-0.1,0.0,9.5,0.25,-7.71,-4.7,2.11,-0.12,-0.06,-0.04,-64.65,-74.61,32610.0,0.0
-7.87,-4.69,2.08,-0.18,0.11,0.12,9.39,0.24,-7.76,-4.69,2.13,-0.14,-0.07,-0.03,-66.09,-75.21,32814.0,0.0
-7.7,-6.15,2.21,-0.25,-0.24,-0.02,10.1,0.35,-7.78,-4.69,2.12,-0.15,-0.03,0.0,-70.19,-73.96,33018.0,0.0
-6.84,-5.22,1.79,-0.19,0.31,0.13,8.79,0.39,-7.77,-4.98,2.14,-0.17,-0.07,0.0,-71.04,-75.31,33222.0,0.0
-6.38,-5.12,2.59,0.05,-0.01,-0.37,8.58,0.37,-7.58,-5.03,2.07,-0.18,0.0,0.02,-63.18,-67.9,33426.0,0.0
-7.57,-5.55,2.29,-0.03,0.0,-0.23,9.66,0.23,-7.34,-5.05,2.17,-0.13,0.0,-0.06,-67.59,-73.18,33630.0,0.0
-6.42,-6.13,2.45,-0.21,-0.43,-0.15,9.21,0.5,-7.39,-5.15,2.2,-0.11,0.0,-0.09,-68.22,-69.11,33834.0,0.0
-8.82,-5.49,2.65,-0.16,0.2,0.08,10.72,0.27,-7.19,-5.34,2.25,-0.13,-0.09,-0.1,-64.25,-73.29,34038.0,0.0
-5.32,-6.39,2.38,0.17,0.62,0.16,8.65,0.66,-7.52,-5.37,2.33,-0.14,-0.03,-0.07,-69.61,-65.91,34242.0,0.0
-5.38,-5.38,2.55,-0.25,-0.25,0.58,8.03,0.68,-7.08,-5.58,2.34,-0.07,0.1,-0.02,-64.69,-64.69,34446.0,0.0
-7.58,-4.67,1.69,-0.14,-0.09,0.12,9.06,0.21,-6.74,-5.54,2.38,-0.11,0.03,0.1,-70.13,-77.45,34650.0,0.0
-7.57,-5.01,2.11,0.07,0.11,-0.02,9.32,0.14,-6.91,-5.37,2.24,-0.12,0.01,0.1,-67.17,-74.44,34854.0,0.0
-7.91,-7.74,1.93,-0.14,0.14,0.27,11.24,0.34,-7.04,-5.29,2.21,-0.08,0.03,0.08,-75.98,-76.28,35058.0,0.0
-7.63,-4.63,2.06,-0.21,-0.15,0.27,9.15,0.38,-7.22,-5.78,2.16,-0.09,0.05,0.12,-66.0,-74.89,35262.0,0.0
-7.44,-5.08,2.04,-0.12,-0.15,0.01,9.24,0.19,-7.3,-5.55,2.14,-0.11,0.01,0.15,-68.15,-74.69,35466.0,0.0
-7.48,-6.26,2.62,-0.26,-0.02,0.45,10.1,0.52,-7.33,-5.46,2.12,-0.12,-0.02,0.12,-67.25,-70.66,35670.0,0.0
-7.24,-5.64,2.43,-0.1,0.04,0.01,9.49,0.11,-7.36,-5.62,2.22,-0.14,-0.02,0.19,-66.73,-71.47,35874.0,0.0
-7.8,-4.89,2.5,-0.29,-0.08,-0.02,9.54,0.3,-7.33,-5.62,2.26,-0.14,-0.01,0.15,-62.95,-72.25,36078.0,0.0
-6.43,-5.27,2.35,-0.2,-0.2,0.42,8.64,0.5,-7.43,-5.48,2.31,-0.17,-0.02,0.12,-65.92,-69.91,36282.0,0.0
-6.76,-5.7,2.16,-0.16,-0.2,0.07,9.1,0.26,-7.23,-5.43,2.32,-0.17,-0.06,0.18,-69.26,-72.3,36486.0,0.0
-7.43,-5.24,2.11,-0.02,0.29,-0.12,9.33,0.31,-7.13,-5.49,2.28,-0.17,-0.09,0.16,-68.08,-74.17,36690.0,0.0
-7.35,-5.27,2.28,-0.1,-0.01,-0.03,9.32,0.11,-7.19,-5.44,2.25,-0.14,-0.01,0.1,-66.61,-72.77,36894.0,0.0
-10.14,-3.87,1.83,-0.02,-0.04,-0.13,11.01,0.14,-7.22,-5.4,2.26,-0.13,-0.01,0.07,-64.71,-79.79,37098.0,0.0
-11.03,-6.91,2.32,-0.01,-0.2,-0.38,13.23,0.43,-7.81,-5.1,2.17,-0.11,-0.02,0.03,-71.43,-78.12,37302.0,0.0
-7.16,-5.43,2.34,-0.21,-0.19,-0.04,9.29,0.28,-8.45,-5.46,2.2,-0.09,-0.05,-0.05,-66.72,-71.93,214.0,0.0
-7.1,-5.58,2.52,-0.86,-1.24,-0.06,9.38,1.5,-8.2,-5.45,2.23,-0.11,-0.08,-0.05,-65.68,-70.42,418.0,0.0
-5.01,-6.75,4.85,-0.69,-1.15,0.27,9.71,1.37,-7.98,-5.48,2.29,-0.26,-0.31,-0.05,-54.33,-45.95,622.0,0.0
-4.3,-6.57,5.01,-0.39,-0.75,0.28,9.31,0.89,-7.38,-5.73,2.8,-0.35,-0.48,0.01,-52.69,-40.61,826.0,0.0
-3.14,-7.09,5.35,-0.31,-0.43,0.3,9.42,0.61,-6.77,-5.9,3.24,-0.36,-0.53,0.07,-52.98,-30.41,1030.0,0.0
-4.65,-6.56,3.98,-0.23,0.36,-0.14,8.97,0.45,-6.04,-6.14,3.66,-0.35,-0.51,0.11,-58.78,-49.44,1234.0,0.0
-4.79,-7.21,4.01,-0.37,0.41,-0.63,9.54,0.83,-5.76,-6.22,3.73,-0.32,-0.34,0.06,-60.94,-50.12,1438.0,0.0
-5.01,-7.56,3.76,-0.1,0.47,-0.14,9.82,0.5,-5.57,-6.42,3.78,-0.33,-0.19,-0.08,-63.54,-53.11,1642.0,0.0
-4.81,-7.53,3.57,0.0,0.37,0.26,9.62,0.45,-5.46,-6.65,3.78,-0.29,-0.06,-0.09,-64.64,-53.43,1846.0,0.0
-4.92,-7.12,3.29,-0.12,0.2,0.12,9.26,0.26,-5.33,-6.82,3.74,-0.23,0.03,-0.02,-65.17,-56.21,2050.0,0.0
-6.31,-6.79,2.95,-0.12,-0.01,0.33,9.73,0.36,-5.25,-6.88,3.65,-0.21,0.06,0.01,-66.51,-64.92,2254.0,0.0
-5.92,-7.09,2.97,-0.28,-0.63,0.13,9.7,0.7,-5.46,-6.87,3.51,-0.19,0.05,0.07,-67.29,-63.38,2458.0,0.0
-6.55,-6.67,3.78,0.09,-0.61,0.05,10.08,0.62,-5.55,-6.91,3.4,-0.21,-0.09,0.09,-60.48,-60.05,2662.0,0.0
-5.38,-5.48,3.23,0.25,-0.1,0.32,8.33,0.42,-5.75,-6.86,3.48,-0.15,-0.19,0.08,-59.49,-59.04,2866.0,0.0
-6.45,-5.42,1.81,-0.91,-1.14,0.2,8.62,1.47,-5.68,-6.59,3.43,-0.07,-0.17,0.13,-71.56,-74.36,3070.0,0.0
-5.36,-6.09,3.23,-0.59,-0.18,-0.22,8.73,0.65,-5.83,-6.35,3.1,-0.24,-0.37,0.14,-62.05,-58.93,3274.0,0.0
-6.14,-6.49,4.57,-0.8,-0.95,0.07,10.04,1.24,-5.74,-6.3,3.13,-0.31,-0.33,0.07,-54.88,-53.38,3478.0,0.0
-4.5,-7.25,5.2,-0.35,-1.28,0.13,10.0,1.34,-5.82,-6.34,3.42,-0.41,-0.45,0.07,-54.35,-40.83,3682.0,0.0
-4.15,-6.7,4.56,1.01,1.35,0.3,9.11,1.72,-5.56,-6.52,3.77,-0.39,-0.62,0.08,-55.74,-42.28,3886.0,0.0
-5.58,-5.3,3.55,0.31,0.42,-0.09,8.47,0.52,-5.27,-6.56,3.93,-0.11,-0.22,0.13,-56.23,-57.55,4090.0,0.0
-5.21,-6.05,5.37,-0.26,0.18,-0.25,9.62,0.4,-5.33,-6.31,3.85,-0.03,-0.1,0.08,-48.4,-44.17,4294.0,0.0
-6.62,-6.14,4.59,-0.05,0.41,0.27,10.13,0.5,-5.31,-6.25,4.16,-0.08,-0.04,0.02,-53.23,-55.29,4498.0,0.0
-8.57,-4.23,4.22,0.06,0.21,0.82,10.45,0.85,-5.57,-6.23,4.24,-0.07,0.05,0.07,-45.02,-63.77,4702.0,0.0
-5.88,-3.56,3.17,0.12,-0.31,0.46,7.57,0.57,-6.17,-5.83,4.24,-0.04,0.08,0.22,-48.28,-61.64,4906.0,0.0
-9.69,-1.69,1.83,-0.65,-0.33,0.05,10.0,0.73,-6.11,-5.38,4.03,-0.01,0.0,0.27,-42.74,-79.31,5110.0,1.0
-5.92,-6.93,4.88,0.46,0.35,-0.17,10.34,0.6,-6.83,-4.64,3.59,-0.14,-0.06,0.22,-54.85,-50.48,7314.0,1.0
-6.94,-5.21,2.3,0.29,-0.29,0.08,8.98,0.41,-6.65,-5.1,3.85,-0.02,0.02,0.14,-66.16,-71.65,7518.0,0.0
-4.22,-6.11,3.3,-0.45,-0.61,-0.04,8.13,0.76,-6.7,-5.12,3.54,0.04,-0.04,0.13,-61.61,-51.95,7722.0,0.0
-4.87,-7.19,5.2,-0.58,-0.14,0.16,10.12,0.62,-6.21,-5.32,3.49,-0.06,-0.16,0.1,-54.12,-43.11,7926.0,0.0
-2.32,-8.88,5.56,-0.48,-2.63,0.5,10.73,2.72,-5.94,-5.69,3.83,-0.16,-0.15,0.11,-57.98,-22.66,8130.0,0.0
-3.02,-7.68,7.1,0.87,-1.45,0.93,10.89,1.93,-5.22,-6.33,4.18,-0.22,-0.65,0.19,-47.26,-23.06,8334.0,0.0
-2.25,-3.33,9.6,1.27,-0.74,0.71,10.41,1.63,-4.78,-6.6,4.76,-0.01,-0.81,0.34,-19.11,-13.19,8538.0,0.0
-0.98,-0.33,7.81,0.8,-0.6,0.62,7.88,1.18,-4.27,-5.95,5.73,0.25,-0.8,0.41,-2.42,-7.16,8742.0,0.0
0.07,0.81,9.01,0.37,-0.1,0.33,9.05,0.51,-3.61,-4.82,6.15,0.36,-0.76,0.45,5.11,0.46,8946.0,0.0
0.95,0.58,8.22,-0.54,0.92,-0.18,8.3,1.09,-2.88,-3.7,6.72,0.36,-0.63,0.43,4.05,6.61,9150.0,0.0
-3.52,-4.59,3.39,-2.64,2.3,-2.44,6.71,4.27,-2.11,-2.84,7.02,0.18,-0.32,0.31,-53.5,-46.07,9354.0,0.0
-5.53,-10.82,7.55,-1.6,-0.07,-1.21,14.31,2.01,-2.39,-3.19,6.3,-0.38,0.21,-0.24,-55.09,-36.19,9558.0,0.0
-3.71,-7.96,4.34,-0.32,0.57,0.04,9.79,0.66,-3.02,-4.72,6.55,-0.63,0.15,-0.44,-61.4,-40.54,9762.0,0.0
-2.26,-8.69,4.17,0.05,0.16,0.28,9.9,0.32,-3.16,-5.37,6.11,-0.57,0.24,-0.34,-64.38,-28.51,9966.0,0.0
-3.58,-8.14,2.78,0.0,-0.12,0.28,9.31,0.3,-2.98,-6.03,5.72,-0.44,0.22,-0.22,-71.14,-52.19,10170.0,0.0
-4.33,-7.1,3.46,-0.25,0.17,0.1,9.01,0.32,-3.1,-6.45,5.13,-0.35,0.15,-0.12,-64.0,-51.35,10374.0,0.0
-4.76,-8.7,2.18,-1.04,-0.82,-0.01,10.16,1.32,-3.35,-6.58,4.8,-0.33,0.16,-0.07,-75.92,-65.38,10578.0,0.0
-4.61,-8.85,1.47,0.4,0.0,0.6,10.08,0.72,-3.63,-7.01,4.27,-0.48,-0.04,-0.06,-80.6,-72.36,10782.0,0.0
-4.24,-7.04,1.12,0.6,0.83,0.19,8.3,1.04,-3.83,-7.37,3.71,-0.3,-0.03,0.07,-80.96,-75.21,10986.0,0.0
-5.26,-7.15,3.17,-0.04,0.23,-0.45,9.43,0.51,-3.91,-7.31,3.19,-0.12,0.14,0.09,-66.08,-58.91,11190.0,0.0
-5.55,-6.88,3.7,0.25,0.39,-0.05,9.58,0.46,-4.18,-7.28,3.19,-0.1,0.16,-0.01,-61.72,-56.27,11394.0,0.0
-5.3,-6.75,3.03,0.21,0.4,0.17,9.1,0.48,-4.45,-7.2,3.29,-0.03,0.21,-0.02,-65.86,-60.27,11598.0,0.0
-5.66,-6.9,2.74,-0.02,0.29,-0.07,9.33,0.3,-4.62,-7.11,3.24,0.02,0.24,0.02,-68.35,-64.21,11802.0,0.0
-5.97,-6.95,2.11,-0.17,0.23,-0.13,9.4,0.31,-4.83,-7.07,3.14,0.01,0.25,0.0,-73.09,-70.51,12006.0,0.0
-5.94,-7.26,2.04,-0.23,0.0,0.0,9.6,0.23,-5.06,-7.04,2.93,-0.03,0.25,-0.03,-74.34,-71.08,12210.0,0.0
-5.67,-7.53,2.06,-0.19,-0.11,0.02,9.65,0.22,-5.23,-7.09,2.75,-0.07,0.2,-0.02,-74.68,-70.01,12414.0,0.0
-5.57,-7.49,2.33,-0.06,0.01,-0.02,9.62,0.06,-5.32,-7.17,2.62,-0.09,0.14,-0.01,-72.7,-67.29,12618.0,0.0
-5.36,-7.41,2.32,-0.04,0.11,-0.09,9.43,0.15,-5.37,-7.24,2.56,-0.09,0.11,-0.01,-72.63,-66.63,12822.0,0.0
-5.58,-7.31,2.27,-0.07,0.06,-0.11,9.47,0.14,-5.37,-7.27,2.51,-0.08,0.11,-0.03,-72.77,-67.89,13026.0,0.0
-5.57,-7.28,2.45,-0.06,0.01,-0.05,9.49,0.08,-5.41,-7.28,2.46,-0.08,0.1,-0.05,-71.38,-66.21,13230.0,0.0
-5.47,-7.35,2.01,-0.08,0.02,0.0,9.38,0.08,-5.44,-7.28,2.46,-0.07,0.08,-0.05,-74.72,-69.83,13434.0,0.0
-5.49,-7.52,2.2,-0.14,0.01,-0.04,9.57,0.15,-5.45,-7.3,2.37,-0.07,0.07,-0.04,-73.69,-68.15,13638.0,0.0
-5.21,-7.52,2.3,-0.09,0.02,-0.06,9.43,0.11,-5.46,-7.34,2.34,-0.09,0.06,-0.04,-72.98,-66.19,13842.0,0.0
-5.31,-7.45,2.31,-0.07,0.01,-0.07,9.43,0.1,-5.41,-7.38,2.33,-0.09,0.05,-0.04,-72.78,-66.51,14046.0,0.0
-5.26,-7.46,2.09,-0.1,-0.01,-0.01,9.36,0.1,-5.39,-7.39,2.32,-0.09,0.04,-0.05,-74.34,-68.34,14250.0,0.0
-5.26,-7.65,2.25,-0.16,-0.02,-0.02,9.55,0.17,-5.36,-7.4,2.28,-0.09,0.03,-0.04,-73.64,-66.88,14454.0,0.0
-5.22,-7.64,2.15,-0.08,0.01,-0.01,9.51,0.08,-5.34,-7.45,2.27,-0.1,0.02,-0.04,-74.26,-67.58,14658.0,0.0
-5.02,-7.64,2.22,-0.09,0.01,-0.03,9.41,0.09,-5.32,-7.49,2.25,-0.1,0.02,-0.03,-73.76,-66.1,14862.0,0.0
-4.05,-7.75,3.13,-0.01,0.07,-0.2,9.29,0.21,-3.8,-6.57,2.27,-0.19,-0.21,0.04,-67.99,-52.29,1978.0,0.0
-4.04,-7.88,3.27,-0.15,0.13,-0.06,9.44,0.21,-3.85,-6.8,2.45,-0.16,-0.15,-0.01,-67.48,-51.04,2182.0,0.0
-3.02,-7.64,2.6,-0.61,-0.1,-0.05,8.61,0.62,-3.89,-7.02,2.61,-0.15,-0.09,-0.02,-71.16,-49.23,2386.0,0.0
-3.71,-7.65,2.43,-0.64,-0.13,0.1,8.85,0.66,-3.72,-7.14,2.61,-0.25,-0.09,-0.02,-72.36,-56.77,2590.0,0.0
-5.08,-7.86,3.05,0.5,-0.17,0.67,9.84,0.85,-3.72,-7.24,2.57,-0.32,-0.1,0.0,-68.81,-59.04,2794.0,0.0
-5.68,-6.44,2.76,0.76,-0.75,0.82,9.02,1.35,-3.99,-7.37,2.67,-0.16,-0.11,0.13,-66.77,-64.06,2998.0,0.0
-6.09,-6.8,6.93,0.94,-1.2,0.8,11.46,1.72,-4.33,-7.18,2.69,0.02,-0.24,0.27,-44.44,-41.3,3202.0,0.0
-8.41,-7.67,8.24,2.15,-0.4,-0.04,14.05,2.19,-4.68,-7.1,3.54,0.21,-0.43,0.38,-42.95,-45.59,3406.0,0.0
-2.33,3.54,10.42,-0.34,-0.32,0.3,11.25,0.56,-5.43,-7.22,4.48,0.6,-0.43,0.29,18.77,-12.6,214.0,0.0
-2.15,4.35,8.66,0.62,0.07,0.6,9.93,0.86,-4.81,-5.07,5.67,0.41,-0.41,0.3,26.68,-13.92,418.0,0.0
-3.93,2.16,6.89,0.75,0.37,0.38,8.22,0.92,-4.27,-3.18,6.26,0.45,-0.31,0.36,17.38,-29.69,622.0,0.0
-6.27,5.47,6.77,0.29,0.61,-0.23,10.73,0.71,-4.21,-2.11,6.39,0.51,-0.17,0.36,38.93,-42.78,826.0,0.0
-3.37,5.85,7.02,-0.15,-0.76,0.41,9.74,0.88,-4.62,-0.6,6.47,0.47,-0.02,0.24,39.8,-25.66,1030.0,0.0
-3.31,6.54,5.43,0.22,0.84,-0.33,9.12,0.93,-4.37,0.69,6.58,0.34,-0.17,0.28,50.32,-31.37,1234.0,0.0
-0.64,2.68,2.19,-2.6,-2.88,-1.41,3.52,4.12,-4.16,1.86,6.35,0.32,0.03,0.15,50.7,-16.19,1438.0,0.0
2.04,-0.9,7.07,0.13,0.26,-0.02,7.41,0.29,-3.45,2.03,5.52,-0.26,-0.55,-0.16,-7.24,16.08,1642.0,0.0
-4.11,0.4,9.19,0.14,0.15,0.37,10.07,0.42,-2.35,1.44,5.83,-0.19,-0.39,-0.13,2.49,-24.12,1846.0,0.0
-4.67,1.93,7.56,0.13,0.49,-0.08,9.09,0.52,-2.71,1.23,6.5,-0.12,-0.28,-0.03,14.33,-31.74,2050.0,0.0
-4.86,1.71,7.92,-0.15,-0.08,0.0,9.45,0.17,-3.1,1.37,6.71,-0.07,-0.13,-0.04,12.18,-31.56,2254.0,0.0
-5.09,1.87,7.78,-0.11,0.0,-0.01,9.48,0.11,-3.45,1.44,6.95,-0.09,-0.12,-0.03,13.53,-33.17,2458.0,0.0
-5.12,1.78,7.81,-0.12,-0.02,-0.02,9.5,0.12,-3.78,1.53,7.12,-0.09,-0.09,-0.03,12.84,-33.26,2662.0,0.0
-5.03,1.79,7.8,-0.16,-0.12,0.02,9.45,0.2,-4.05,1.58,7.25,-0.1,-0.08,-0.03,12.9,-32.81,2866.0,0.0
-4.7,1.63,8.17,-0.1,0.02,0.0,9.57,0.1,-4.24,1.62,7.36,-0.11,-0.09,-0.02,11.3,-29.91,3070.0,0.0
-5.01,1.8,7.91,-0.1,0.01,-0.01,9.53,0.1,-4.33,1.62,7.53,-0.11,-0.07,-0.01,12.79,-32.36,3274.0,0.0
-4.93,1.71,7.99,-0.1,0.01,-0.01,9.54,0.1,-4.47,1.66,7.6,-0.11,-0.05,-0.01,12.11,-31.66,3478.0,0.0
-5.04,1.75,7.99,-0.09,0.02,-0.01,9.6,0.09,-4.56,1.67,7.68,-0.1,-0.04,-0.01,12.33,-32.25,3682.0,0.0
-4.98,1.71,7.88,-0.1,0.01,-0.01,9.48,0.1,-4.66,1.68,7.74,-0.1,-0.03,-0.01,12.22,-32.29,3886.0,0.0
-4.91,1.76,7.91,-0.11,0.0,-0.01,9.47,0.11,-4.72,1.69,7.77,-0.1,-0.02,-0.01,12.58,-31.86,4090.0,0.0
-4.97,1.77,7.93,-0.1,0.01,0.0,9.53,0.1,-4.76,1.7,7.8,-0.1,-0.01,-0.01,12.57,-32.04,4294.0,0.0
-5.04,1.82,7.88,-0.1,0.01,-0.01,9.53,0.1,-4.8,1.72,7.82,-0.1,-0.01,-0.01,12.98,-32.61,4498.0,0.0
-5.01,1.8,7.94,-0.11,0.0,-0.01,9.56,0.11,-4.85,1.74,7.84,-0.1,0.0,-0.01,12.78,-32.25,4702.0,0.0
